"Time (s)","Linear Acceleration x (m/s^2)","Linear Acceleration y (m/s^2)","Linear Acceleration z (m/s^2)"
1.140269200E-2,-2.537487507E0,1.739539385E0,2.658243179E-1
2.140169200E-2,-3.215599298E0,1.764032841E0,8.861665726E-1
3.140119200E-2,-3.430381536E0,1.558949947E0,1.296239853E0
4.140052500E-2,-3.263757229E0,1.236934900E0,1.269687653E0
5.140002500E-2,-3.233979702E0,9.751174450E-1,1.136514664E0
6.139962500E-2,-3.244538307E0,8.132654428E-1,9.892196655E-1
7.139895800E-2,-3.051979542E0,7.765688896E-1,7.107343674E-1
8.139810000E-2,-2.891224861E0,5.865399837E-1,6.248416901E-1
9.139735000E-2,-2.544036627E0,2.639892101E-1,4.887046814E-1
1.013964610E-1,-2.410196781E0,2.253866196E-2,5.166673660E-1
1.113956610E-1,-2.179312706E0,-1.941939592E-1,8.039674759E-1
1.213948420E-1,-1.802627325E0,-1.591324806E-1,1.065018654E0
1.313940920E-1,-1.711256981E0,-4.045678377E-1,9.555501938E-1
1.413933220E-1,-1.724221230E0,-3.487138748E-1,6.412677765E-1
1.513926790E-1,-1.700925231E0,-2.861499786E-1,5.598630905E-1
1.613919450E-1,-1.696481705E0,-2.860624790E-1,5.279207230E-1
1.713912570E-1,-1.742014647E0,-3.192726374E-1,4.419965744E-1
1.813904920E-1,-1.804418802E0,-3.820053339E-1,4.122676849E-1
1.913896580E-1,-2.285256386E0,3.629791737E-2,-1.436971664E0
2.013888680E-1,-1.978722334E0,3.596800566E-1,-1.942394733E0
2.113880180E-1,-2.073135853E0,4.775859118E-1,-1.915392876E0
2.213871130E-1,-1.963142037E0,5.245649815E-1,-1.845489502E0
2.313862490E-1,-1.963228822E0,6.912388802E-1,-2.283046722E0
2.413853350E-1,-1.982608080E0,5.417382717E-1,-2.110464096E0
2.513844600E-1,-1.945584536E0,4.549806118E-1,-1.666701794E0
2.613835400E-1,-2.004295588E0,3.384156227E-1,-1.617739201E0
2.713825780E-1,-2.167568684E0,1.289875507E-1,-1.131662369E0
2.813816520E-1,-2.375880241E0,2.939653397E-2,-1.086282730E0
2.913806870E-1,-2.420258522E0,-1.306605339E-2,-1.023795128E0
3.013796870E-1,-2.368463993E0,-5.527496338E-2,-9.099645615E-1
3.113787200E-1,-2.381568432E0,9.706187248E-2,-1.053841591E0
3.213777200E-1,-2.373811960E0,3.814594746E-1,-1.251083374E0
3.313766530E-1,-2.590764523E0,3.976302147E-1,-1.164904594E0
3.413756190E-1,-2.733404160E0,5.253851414E-1,-1.033320427E0
3.513745190E-1,-2.886059523E0,4.154131413E-1,-7.965164185E-1
3.613734190E-1,-3.016448021E0,2.981345654E-1,-3.825569153E-1
3.713723190E-1,-3.104654312E0,2.695345879E-1,-2.101335526E-1
3.813712190E-1,-3.177879333E0,3.373050690E-1,-3.133182526E-1
3.913701190E-1,-3.386916876E0,4.729347229E-1,-4.646825790E-1
4.013690190E-1,-3.533290863E0,5.919277668E-1,-6.423597336E-1
4.113678520E-1,-3.401588440E0,6.008520126E-1,-5.595779419E-1
4.213667180E-1,-3.822618008E0,8.215873241E-1,-8.595113754E-1
4.313655180E-1,-3.947097301E0,9.527101517E-1,-1.063178062E0
4.413642840E-1,-4.021683693E0,1.050042868E0,-1.147399902E0
4.513630170E-1,-4.083202362E0,1.207173586E0,-1.114478111E0
4.613617500E-1,-4.082003593E0,1.320841074E0,-1.038458824E0
4.713604160E-1,-4.065684319E0,1.496789694E0,-8.615150452E-1
4.813591490E-1,-4.102751732E0,1.631923437E0,-5.958690643E-1
4.913578820E-1,-4.130073547E0,1.768017054E0,-3.977270126E-1
5.013566150E-1,-4.160487652E0,1.783771753E0,-2.239408493E-1
5.113553480E-1,-4.025212288E0,1.640684128E0,5.505275726E-2
5.213540810E-1,-3.922770977E0,1.370709896E0,3.312253952E-1
5.313528140E-1,-3.776522636E0,1.127000332E0,6.347351074E-1
5.413515470E-1,-3.757587433E0,8.975040913E-1,1.034800529E0
5.513502470E-1,-4.044453621E0,7.597236633E-1,1.497500420E0
5.613490130E-1,-4.277922153E0,7.389535904E-1,1.802290916E0
5.713477460E-1,-4.455358982E0,8.278403282E-1,1.833225250E0
5.813464120E-1,-4.587330341E0,9.380788803E-1,1.939103127E0
5.913451780E-1,-4.104069710E0,8.256783485E-1,1.890827179E0
6.013439440E-1,-4.116553783E0,8.477344513E-1,2.077989578E0
6.113427100E-1,-3.958473206E0,9.952208996E-1,1.932137489E0
6.213414760E-1,-3.950799227E0,9.769916534E-1,1.660748482E0
6.313402420E-1,-3.936006546E0,9.209589958E-1,1.425756454E0
6.413390080E-1,-3.962637424E0,7.006828785E-1,1.392411232E0
6.513377740E-1,-4.011503220E0,3.103919029E-1,1.380572319E0
6.613364740E-1,-4.114412308E0,1.711010933E-2,1.428215981E0
6.713352400E-1,-4.174450874E0,-2.234926224E-1,1.482604980E0
6.813340060E-1,-4.343785763E0,-4.358289242E-1,1.402089119E0
6.913327060E-1,-4.490418434E0,-5.906783342E-1,1.226903915E0
7.013314720E-1,-4.409717560E0,-7.500934601E-1,9.899959564E-1
7.113302380E-1,-4.322165966E0,-8.298089504E-1,8.076868057E-1
7.213289380E-1,-4.131090164E0,-8.457535505E-1,6.075992584E-1
7.313277040E-1,-3.915068865E0,-8.208403587E-1,3.884840012E-1
7.413264700E-1,-3.792736530E0,-7.387518883E-1,2.156352997E-1
7.513252360E-1,-3.808004618E0,-5.396287441E-1,-2.794551849E-2
7.613240020E-1,-3.875841141E0,-3.088717461E-1,-4.251937866E-1
7.713227680E-1,-3.883155584E0,-5.374360085E-2,-8.524799347E-1
7.813215340E-1,-3.816972256E0,9.936976433E-2,-1.144098759E0
7.913203000E-1,-3.775505304E0,1.589090824E-1,-1.285188198E0
8.013190000E-1,-3.789301157E0,1.103367805E-1,-1.263774395E0
8.113177660E-1,-3.831940413E0,1.375162601E-1,-1.179460526E0
8.213165320E-1,-3.774630547E0,2.195904255E-1,-1.143283844E0
8.313152320E-1,-3.599681377E0,3.346779346E-1,-1.047802925E0
8.413139980E-1,-3.400782347E0,4.126703739E-1,-9.902276993E-1
8.513127310E-1,-3.132694960E0,3.460950851E-1,-9.635133743E-1
8.613114640E-1,-2.973041773E0,3.544244766E-1,-9.800729752E-1
8.713102300E-1,-2.952091217E0,3.644437790E-1,-1.085207462E0
8.813089960E-1,-2.957057476E0,3.923177719E-1,-1.122306824E0
8.913076960E-1,-3.060514927E0,3.339803219E-1,-1.272663593E0
9.013064290E-1,-3.146143198E0,2.561757565E-1,-1.400020123E0
9.113050950E-1,-3.341910362E0,2.146270275E-1,-1.453861237E0
9.213037950E-1,-3.530455112E0,1.541728973E-1,-1.481192112E0
9.313025280E-1,-3.697234631E0,2.191567421E-2,-1.269697189E0
9.413011610E-1,-3.681944847E0,-9.470844269E-2,-1.049063206E0
9.512998940E-1,-3.641154289E0,-9.399867058E-2,-8.132572174E-1
9.612986600E-1,-3.401489258E0,-1.832699776E-2,-7.267351151E-1
9.712973600E-1,-3.385329008E0,1.681818962E-1,-6.558713913E-1
9.812961930E-1,-3.252452612E0,4.165747166E-1,-9.210252762E-1
9.912949590E-1,-3.324595690E0,6.888408661E-1,-8.778076172E-1
1.001293725E0,-3.356573343E0,8.437435627E-1,-1.026603699E0
1.011292491E0,-3.430888414E0,9.338636398E-1,-9.764862061E-1
1.021291257E0,-3.490632534E0,1.058833599E0,-9.671068192E-1
1.031290023E0,-3.500765324E0,1.183531046E0,-7.319679260E-1
1.041288789E0,-3.391828775E0,1.293856859E0,-4.109926224E-1
1.051287489E0,-3.373547554E0,1.383150816E0,-8.689880371E-3
1.061286255E0,-3.336283922E0,1.457870483E0,4.195175171E-1
1.071285021E0,-3.278700352E0,1.513225555E0,8.289756775E-1
1.081283721E0,-3.164507389E0,1.612124443E0,1.229672432E0
1.091282487E0,-3.054649353E0,1.663685799E0,1.625726700E0
1.101281253E0,-2.771866322E0,1.591198683E0,1.945967674E0
1.111280019E0,-2.671508789E0,1.562330008E0,2.291852951E0
1.121278752E0,-2.728591204E0,1.523589134E0,2.399437904E0
1.131277485E0,-2.773722649E0,1.444706440E0,2.198489189E0
1.141276251E0,-2.939147472E0,1.415901661E0,1.652220726E0
1.151275017E0,-3.126245022E0,1.459242344E0,1.296305656E0
1.161273683E0,-3.151017904E0,1.448145390E0,8.899374008E-1
1.171272416E0,-3.224007607E0,1.427933455E0,7.970190048E-1
1.181271182E0,-3.256202698E0,1.415378094E0,7.788457870E-1
1.191269982E0,-3.262161732E0,1.374909401E0,7.354431152E-1
1.201268815E0,-3.260793924E0,1.400042295E0,7.249174118E-1
1.211267715E0,-3.244184494E0,1.437658787E0,7.064056396E-1
1.221266581E0,-3.191608906E0,1.450028181E0,6.886119843E-1
1.231265481E0,-3.143105507E0,1.477985620E0,6.560144424E-1
1.241264414E0,-3.020266294E0,1.414845228E0,6.507158279E-1
1.251263314E0,-1.919521332E0,3.808474541E-2,1.104085922E0
1.261262180E0,-1.944680452E0,-1.770348549E-1,1.121985435E0
1.271261046E0,-2.023140907E0,-4.608960152E-1,1.197131157E0
1.281259846E0,-2.078037739E0,-6.957231760E-1,1.178901672E0
1.291258712E0,-2.149394751E0,-8.313136101E-1,1.091439247E0
1.301257512E0,-2.330719471E0,-8.758035898E-1,8.976850510E-1
1.311256378E0,-2.512124777E0,-8.793594837E-1,6.271753311E-1
1.321255244E0,-2.677924871E0,-8.398286104E-1,2.659893036E-1
1.331254044E0,-2.941390514E0,-6.700319052E-1,-2.474050522E-1
1.341252910E0,-3.143987894E0,-4.453947544E-1,-6.813316345E-1
1.351251776E0,-3.204915047E0,-1.656420231E-1,-1.088559151E0
1.361250642E0,-3.116782188E0,3.184199333E-2,-1.579410076E0
1.371249508E0,-2.921567440E0,1.029980183E-1,-1.969069958E0
1.381248341E0,-2.711559772E0,1.942725182E-1,-2.239487648E0
1.391247207E0,-2.591141701E0,3.128290176E-1,-2.346959114E0
1.401246040E0,-2.489070892E0,4.494800568E-1,-2.182974815E0
1.411244840E0,-2.416128635E0,4.744260311E-1,-1.842782497E0
1.421243740E0,-2.376345634E0,3.205308914E-1,-1.358605862E0
1.431242640E0,-2.502242088E0,1.410276890E-1,-9.498720169E-1
1.441241440E0,-2.738428831E0,-2.198600769E-2,-6.612138748E-1
1.451240306E0,-2.870439768E0,-1.450369358E-1,-4.469299316E-1
1.461239206E0,-2.960094213E0,-3.194117546E-1,-3.487472534E-1
1.471238039E0,-3.023429871E0,-4.044041634E-1,-3.451757431E-1
1.481236905E0,-3.075589657E0,-3.251945972E-1,-4.816293716E-1
1.491235705E0,-3.059788942E0,-1.153752804E-1,-5.854511261E-1
1.501234505E0,-3.098553896E0,1.390893459E-1,-7.003698349E-1
1.511233238E0,-3.058947086E0,3.403582573E-1,-6.975421906E-1
1.521231971E0,-2.930967331E0,4.211180210E-1,-6.663398743E-1
1.531230704E0,-2.859837770E0,4.775197506E-1,-5.544853210E-1
1.541229437E0,-2.827437639E0,5.227723122E-1,-5.751419067E-1
1.551228103E0,-2.888491869E0,6.195909977E-1,-5.697946548E-1
1.561226836E0,-2.934124231E0,7.075352669E-1,-5.131540298E-1
1.571225569E0,-2.876675367E0,7.772715092E-1,-4.042215347E-1
1.581224269E0,-2.832337618E0,8.196840286E-1,-3.847227097E-1
1.591223035E0,-2.847786903E0,8.187329769E-1,-4.296598434E-1
1.601221801E0,-3.033397675E0,9.744825363E-1,-5.082483292E-1
1.611220567E0,-3.103484154E0,1.101022720E0,-6.178531647E-1
1.621219367E0,-3.274052382E0,1.262454987E0,-5.810050964E-1
1.631218133E0,-3.395342350E0,1.427009344E0,-4.585962296E-1
1.641216899E0,-3.490111828E0,1.511729240E0,-2.370491028E-1
1.651215665E0,-3.422365904E0,1.443119287E0,6.911563873E-2
1.661214365E0,-3.381404638E0,1.349888563E0,3.691320419E-1
1.671213098E0,-3.253735542E0,1.241673470E0,7.313022614E-1
1.681211898E0,-3.062898636E0,1.071226835E0,1.215990067E0
1.691210598E0,-2.996766090E0,1.014761925E0,1.568572998E0
1.701209398E0,-3.074461937E0,1.059248686E0,1.869269371E0
1.711208164E0,-3.216609240E0,1.253395081E0,2.031525612E0
1.721206864E0,-3.332650661E0,1.374303579E0,2.012458801E0
1.731205630E0,-3.431680679E0,1.383292437E0,1.932538986E0
1.741204396E0,-3.551263571E0,1.264386177E0,1.679510117E0
1.751203162E0,-3.734491110E0,1.127576113E0,1.456860542E0
1.761201928E0,-3.885636091E0,9.107403755E-1,1.274043083E0
1.771200694E0,-3.938612461E0,6.758284569E-1,1.125823021E0
1.781199460E0,-3.947938681E0,4.458026886E-1,1.021951675E0
1.791198226E0,-3.851292372E0,2.153365612E-1,8.907842636E-1
1.801197026E0,-3.613458157E0,-8.201599121E-5,8.479270935E-1
1.811195759E0,-3.408392906E0,-1.253929138E-1,7.907314301E-1
1.821194525E0,-3.283935070E0,-2.280254364E-1,7.122182846E-1
1.831193191E0,-3.261937618E0,-2.789654732E-1,4.879522324E-1
1.841191957E0,-3.291209459E0,-3.316361904E-1,2.575111389E-1
1.851190723E0,-3.231228113E0,-4.011983871E-1,2.692031860E-2
1.861189489E0,-3.147249460E0,-4.514789581E-1,-1.614599228E-1
1.871188255E0,-3.118043184E0,-5.192112923E-1,-3.393697739E-1
1.881186988E0,-3.094964981E0,-6.533794403E-1,-4.308500290E-1
1.891185721E0,-3.054201365E0,-7.363424301E-1,-4.607162476E-1
1.901184454E0,-3.095078468E0,-7.174024582E-1,-5.053014755E-1
1.911183120E0,-3.125080109E0,-6.550900936E-1,-5.591392517E-1
1.921181820E0,-3.153162718E0,-4.520528316E-1,-7.410917282E-1
1.931180686E0,-3.074804068E0,-2.635054588E-1,-9.528942108E-1
1.941179352E0,-2.996503592E0,-1.365406513E-1,-1.084310532E0
1.951178085E0,-2.894559860E0,-4.455327988E-2,-1.255880833E0
1.961176818E0,-2.826956987E0,-9.925842285E-3,-1.248459339E0
1.971175518E0,-2.766486883E0,1.927113533E-2,-1.113181114E0
1.981174251E0,-2.708282948E0,-3.081822395E-2,-8.342170715E-1
1.991173017E0,-2.648941278E0,-1.304299831E-1,-6.117048264E-1
2.001171783E0,-2.643182278E0,-2.003483772E-1,-5.199918747E-1
2.011170549E0,-2.680194378E0,-1.944444180E-1,-5.062255859E-1
2.021169315E0,-2.757546425E0,-1.269657612E-1,-5.984430313E-1
2.031168081E0,-2.849978924E0,-5.213832855E-2,-6.529731750E-1
2.041166847E0,-2.899352074E0,-5.521106720E-2,-6.839923859E-1
2.051165547E0,-2.902152061E0,-1.006860733E-1,-6.924962997E-1
2.061164313E0,-2.895696878E0,-4.113221169E-2,-6.648693085E-1
2.071163079E0,-2.953290462E0,3.145289421E-2,-6.250114441E-1
2.081161779E0,-3.047891378E0,1.445562840E-1,-5.751485825E-1
2.091160545E0,-2.944894314E0,2.387783527E-1,-6.135826111E-1
2.101159211E0,-2.841833115E0,3.788497448E-1,-6.976127625E-1
2.111158011E0,-2.795053005E0,5.652267933E-1,-7.822217941E-1
2.121156777E0,-2.830604076E0,7.629399300E-1,-8.103284836E-1
2.131155577E0,-2.879641294E0,9.096946716E-1,-7.936916351E-1
2.141154343E0,-2.901884556E0,9.963359833E-1,-7.370920181E-1
2.151153143E0,-2.955194473E0,1.038363934E0,-7.429475784E-1
2.161151876E0,-3.023358822E0,1.035337448E0,-7.486953735E-1
2.171150642E0,-3.093452454E0,1.102502823E0,-7.923107147E-1
2.181149375E0,-3.165415287E0,1.269139767E0,-7.727308273E-1
2.191148075E0,-3.207503557E0,1.415910244E0,-6.536664963E-1
2.201146841E0,-3.191406727E0,1.486813545E0,-4.659299850E-1
2.211145607E0,-3.116206169E0,1.535526991E0,-2.771654129E-1
2.221144373E0,-3.049798489E0,1.524565697E0,-1.407508850E-1
2.231143039E0,-2.929056168E0,1.504658937E0,6.569862366E-2
2.241141939E0,-2.759612560E0,1.488665104E0,4.074869156E-1
2.251140839E0,-2.565870047E0,1.496196270E0,8.606967926E-1
2.261139805E0,-2.442508698E0,1.428623915E0,1.343836784E0
2.271138805E0,-2.422373772E0,1.333918095E0,1.861610413E0
2.281137805E0,-2.492652178E0,1.286256552E0,2.229517937E0
2.291136805E0,-2.601257324E0,1.225384474E0,2.483077049E0
2.301135805E0,-2.516223431E0,1.137054205E0,2.259307861E0
2.311134871E0,-2.521866322E0,1.113957405E0,2.241248131E0
2.321133937E0,-2.576839924E0,1.125516891E0,1.989601135E0
2.331132937E0,-2.670012236E0,1.011851311E0,1.727262497E0
2.341132003E0,-2.523869276E0,7.693126202E-1,1.444365501E0
2.351131069E0,-2.395884991E0,5.674624443E-1,1.229311943E0
2.361130135E0,-2.351259947E0,3.960080147E-1,1.122523308E0
2.371129201E0,-2.273949862E0,3.319256306E-1,1.024545670E0
2.381128267E0,-2.044584990E0,2.656762600E-1,9.073820114E-1
2.391127333E0,-1.817280293E0,2.275247574E-1,8.434734344E-1
2.401126399E0,-1.423723459E0,-2.734804153E-2,7.983417511E-1
2.411125399E0,-1.208555937E0,-2.785208225E-1,9.001998901E-1
2.421124465E0,-1.004595518E0,-5.789648294E-1,1.068479538E0
2.431123531E0,-9.206341505E-1,-7.591195107E-1,1.200548172E0
2.441122531E0,-9.729558229E-1,-8.561321497E-1,1.258191109E0
2.451121564E0,-1.147586703E0,-9.131890535E-1,1.117615700E0
2.461120597E0,-1.296064734E0,-9.369373322E-1,9.175605774E-1
2.471119663E0,-1.568490863E0,-9.273874760E-1,4.909811020E-1
2.481118763E0,-1.744757175E0,-9.841357470E-1,2.245721817E-1
2.491117829E0,-1.932127953E0,-9.125103951E-1,-3.688144684E-2
2.501116895E0,-2.057243824E0,-7.371900082E-1,-2.952728271E-1
2.511115961E0,-2.146475315E0,-5.654091835E-1,-5.513267517E-1
2.521114961E0,-2.124884844E0,-4.108078480E-1,-7.216281891E-1
2.531113994E0,-1.974195242E0,-3.366687298E-1,-8.196401596E-1
2.541112927E0,-1.815460920E0,-3.152561188E-1,-8.754291534E-1
2.551111793E0,-1.894289374E0,-2.938010693E-1,-9.081563950E-1
2.561110659E0,-2.061771631E0,-2.560083866E-1,-9.990229607E-1
2.571109492E0,-2.179913044E0,-2.831151485E-1,-1.197218418E0
2.581108258E0,-2.241728306E0,-3.044803143E-1,-1.537434101E0
2.591107058E0,-2.346035004E0,-2.023394108E-1,-1.741364002E0
2.601105791E0,-2.439849377E0,-1.594960690E-1,-1.897642136E0
2.611104524E0,-2.500540972E0,-1.199712753E-1,-1.752684593E0
2.621103257E0,-2.609842539E0,-1.408574581E-1,-1.487025261E0
2.631101990E0,-2.646697044E0,-2.014315128E-1,-1.178236008E0
2.641100723E0,-2.735366583E0,-2.502613068E-1,-8.978357315E-1
2.651099456E0,-2.765620232E0,-3.078074455E-1,-7.323293686E-1
2.661098122E0,-2.697996855E0,-3.157236576E-1,-6.393699646E-1
2.671096855E0,-2.610836506E0,-2.466535568E-1,-6.417865753E-1
2.681095588E0,-2.653301954E0,-2.914524078E-2,-7.628631592E-1
2.691094254E0,-2.764979601E0,2.404174805E-1,-9.943623543E-1
2.701092987E0,-2.841687679E0,5.100953579E-1,-1.256240845E0
2.711091787E0,-2.915148258E0,7.007548809E-1,-1.432654858E0
2.721090553E0,-2.928321123E0,8.160309792E-1,-1.484104633E0
2.731089319E0,-2.882577658E0,8.191702366E-1,-1.453927517E0
2.741088085E0,-2.900409222E0,8.084652424E-1,-1.332530499E0
2.751086851E0,-2.941258907E0,8.012385368E-1,-1.231750488E0
2.761085617E0,-3.035055637E0,8.566153049E-1,-1.106138706E0
2.771084317E0,-3.111366272E0,9.642429352E-1,-9.933600426E-1
2.781083083E0,-3.261470079E0,1.070516348E0,-9.336977005E-1
2.791081849E0,-3.343044758E0,1.155717134E0,-8.356370926E-1
2.801080549E0,-3.408672810E0,1.206724405E0,-7.182426453E-1
2.811079315E0,-3.440066814E0,1.276333094E0,-5.286970139E-1
2.821078081E0,-3.452202320E0,1.316186428E0,-3.983793259E-1
2.831076781E0,-3.382328510E0,1.300812006E0,-1.619701385E-1
2.841075547E0,-3.298866272E0,1.197691441E0,8.654499054E-2
2.851074313E0,-3.169930935E0,1.097635746E0,4.069108963E-1
2.861073079E0,-3.156417847E0,9.878311157E-1,8.627624512E-1
2.871071845E0,-3.212234735E0,9.171907902E-1,1.257571220E0
2.881070611E0,-3.338808537E0,9.460594654E-1,1.586435318E0
2.891069377E0,-3.477699757E0,1.077176094E0,1.791814804E0
2.901068143E0,-3.485462189E0,1.217175722E0,1.750113487E0
2.911066843E0,-3.375386238E0,1.341776371E0,1.519229889E0
2.921065609E0,-3.254724026E0,1.429341078E0,1.244856834E0
2.931064375E0,-3.284833908E0,1.511591434E0,1.165299416E0
2.941063075E0,-3.283011436E0,1.399793863E0,1.260825157E0
2.951061841E0,-3.219778538E0,9.852831364E-1,1.473891258E0
2.961060607E0,-3.212085247E0,5.234920979E-1,1.726572037E0
2.971059373E0,-3.283184767E0,7.360243797E-2,1.839687347E0
2.981058139E0,-3.333650351E0,-2.691001892E-1,1.796620369E0
2.991056905E0,-3.542972565E0,-8.251740932E-1,1.708209991E0
3.001055671E0,-3.523774385E0,-1.187561989E0,1.414921761E0
3.011054371E0,-3.543474674E0,-1.540611386E0,1.039992332E0
3.021053037E0,-3.652864695E0,-1.490003347E0,9.761495590E-1
3.031051770E0,-3.720744848E0,-1.500864387E0,6.942310333E-1
3.041050503E0,-3.615270853E0,-1.450824022E0,3.222932816E-1
3.051049169E0,-3.475839138E0,-1.352666974E0,4.564762115E-2
3.061047902E0,-3.285691738E0,-1.213312507E0,-3.123159409E-1
3.071046635E0,-3.103199959E0,-1.044878721E0,-7.004032135E-1
3.081045301E0,-2.932315350E0,-7.580003738E-1,-1.215032101E0
3.091044034E0,-2.835213661E0,-4.481396675E-1,-1.514564037E0
3.101042767E0,-2.751748085E0,-9.028697014E-2,-1.705161095E0
3.111041500E0,-2.629533052E0,1.601984501E-1,-1.734046936E0
3.121040266E0,-2.621532917E0,2.233498096E-1,-1.794441700E0
3.131038999E0,-2.698243856E0,1.541066170E-1,-1.817097187E0
3.141037765E0,-2.807614326E0,-3.558874130E-3,-1.755206585E0
3.151036531E0,-2.869536400E0,-2.448091507E-1,-1.519904137E0
3.161035231E0,-2.861272812E0,-4.393494129E-1,-1.222894669E0
3.171033997E0,-2.867822170E0,-6.211633682E-1,-9.207963943E-1
3.181032763E0,-2.845974207E0,-7.676284313E-1,-7.540359497E-1
3.191031463E0,-2.809665442E0,-8.951361179E-1,-6.482563019E-1
3.201030229E0,-2.712676048E0,-8.974041939E-1,-6.227636337E-1
3.211028995E0,-2.625215769E0,-7.611289024E-1,-7.038660049E-1
3.221027761E0,-2.679552078E0,-5.108714104E-1,-8.821353912E-1
3.231026527E0,-2.659795284E0,-3.015191555E-1,-1.119527817E0
3.241025293E0,-2.692522526E0,-2.048976421E-1,-1.348472118E0
3.251024059E0,-2.783362150E0,-9.115028381E-2,-1.568401814E0
3.261022825E0,-2.824578285E0,-6.023621559E-2,-1.637239456E0
3.271021525E0,-2.858183146E0,1.110792160E-3,-1.628003120E0
3.281020291E0,-2.862689257E0,8.366990089E-2,-1.566036224E0
3.291019057E0,-2.847481966E0,1.848580837E-1,-1.486205578E0
3.301017757E0,-2.740348577E0,3.227186203E-1,-1.283043861E0
3.311016523E0,-2.609827995E0,4.604451656E-1,-1.131341934E0
3.321015323E0,-2.499413729E0,5.508761406E-1,-9.766626358E-1
3.331014089E0,-2.445722580E0,6.449594498E-1,-7.405252457E-1
3.341012922E0,-2.371190071E0,7.183237076E-1,-4.839658737E-1
3.351011822E0,-2.359873772E0,7.838065624E-1,-2.602958679E-1
3.361010722E0,-2.372067690E0,8.133039474E-1,-7.996463776E-2
3.371009622E0,-2.452366590E0,8.319373131E-1,3.258991241E-2
3.381008522E0,-2.580537796E0,8.932125568E-1,9.371089935E-2
3.391007422E0,-2.659220219E0,1.054366589E0,1.902656555E-1
3.401006322E0,-2.644859791E0,1.269287348E0,3.543405533E-1
3.411005155E0,-2.530649424E0,1.470315218E0,5.530796051E-1
3.421004021E0,-2.387813091E0,1.564884186E0,5.765466690E-1
3.431002921E0,-2.211205244E0,1.496268749E0,5.585432053E-1
3.441001721E0,-2.111582041E0,1.448404074E0,6.115360260E-1
3.451000587E0,-2.159173012E0,1.543928623E0,8.066310883E-1
3.460999453E0,-2.285729647E0,1.616745949E0,9.077072144E-1
3.470998319E0,-2.352972031E0,1.670210838E0,9.348573685E-1
3.480997185E0,-2.402763128E0,1.643449068E0,9.947566986E-1
3.490996051E0,-2.447797775E0,1.657371998E0,1.022524834E0
3.500994917E0,-2.450762749E0,1.617890358E0,9.308500290E-1
3.510993783E0,-2.319785833E0,1.469144583E0,8.658666611E-1
3.520992583E0,-2.121171713E0,1.196687460E0,1.122397423E0
3.530991449E0,-1.963941336E0,9.644074440E-1,1.495939255E0
3.540990315E0,-2.022306919E0,7.891952991E-1,1.514969826E0
3.550989115E0,-1.807106495E0,4.749693871E-1,1.722723007E0
3.560987981E0,-1.760906219E0,2.598986626E-1,1.751832008E0
3.570986847E0,-1.584690571E0,-8.355307579E-2,1.551835060E0
3.580985647E0,-1.494480610E0,-3.445196152E-1,9.857358932E-1
3.590984513E0,-1.643807411E0,-3.875826597E-1,9.132633209E-1
3.600983379E0,-1.487953901E0,-5.137279034E-1,3.419561386E-1
3.610982245E0,-1.576425791E0,-5.357553959E-1,1.341457367E-1
3.620981078E0,-1.707040787E0,-6.084201336E-1,2.556991577E-2
3.630979878E0,-1.721702337E0,-7.751826048E-1,-6.276416779E-2
3.640978678E0,-1.736863852E0,-9.049571753E-1,-6.119823456E-2
3.650977411E0,-1.797612906E0,-8.989717960E-1,-1.344661713E-1
3.660976077E0,-1.833380222E0,-8.912363052E-1,-2.499284744E-1
3.670974810E0,-1.876104593E0,-8.369542360E-1,-3.691968918E-1
3.680973543E0,-2.066581726E0,-6.440168619E-1,-9.122247696E-1
3.690972209E0,-2.256825447E0,-5.251817703E-1,-1.480625629E0
3.700970942E0,-2.356803656E0,-4.256980419E-1,-2.045182705E0
3.710969675E0,-2.359094381E0,-3.634140491E-1,-2.456651211E0
3.720968408E0,-2.349661589E0,-3.284256458E-1,-2.668634415E0
3.730967141E0,-2.283732653E0,-3.604726791E-1,-2.646918297E0
3.740965907E0,-2.093339682E0,-4.248297215E-1,-2.386741161E0
3.750964673E0,-1.928139687E0,-4.722311497E-1,-1.928494930E0
3.760963439E0,-1.844490290E0,-4.163815975E-1,-1.401069164E0
3.770962139E0,-1.817741632E0,-4.020240307E-1,-9.336862564E-1
3.780960905E0,-1.929831743E0,-4.040703773E-1,-6.804189682E-1
3.790959671E0,-2.026376486E0,-4.290478230E-1,-5.243844986E-1
3.800958371E0,-2.161133289E0,-4.883434772E-1,-4.905090332E-1
3.810957137E0,-2.234515429E0,-5.408668518E-1,-5.254182816E-1
3.820955903E0,-2.441170216E0,-5.229268074E-1,-6.574735641E-1
3.830954603E0,-2.523412466E0,-4.103088379E-1,-8.059873581E-1
3.840953369E0,-2.527402878E0,-2.682218552E-1,-9.378986359E-1
3.850952135E0,-2.524768829E0,-7.954454422E-2,-9.439411163E-1
3.860950901E0,-2.440487862E0,1.005301476E-1,-9.590005875E-1
3.870949667E0,-2.357411861E0,1.918191910E-1,-8.614854813E-1
3.880948433E0,-2.305497885E0,3.072888851E-1,-8.432350159E-1
3.890947199E0,-2.260313511E0,4.511659145E-1,-8.469781876E-1
3.900945965E0,-2.217740059E0,5.805361271E-1,-7.936944962E-1
3.910944665E0,-2.210721254E0,6.955435276E-1,-8.199806213E-1
3.920943431E0,-2.215669394E0,7.575504780E-1,-8.323030472E-1
3.930942197E0,-2.239326239E0,7.641282082E-1,-7.944726944E-1
3.940940897E0,-2.306683064E0,7.708616257E-1,-7.184991837E-1
3.950939663E0,-2.457862139E0,7.965648174E-1,-7.072849274E-1
3.960938429E0,-2.648249149E0,8.647427559E-1,-6.695652008E-1
3.970937195E0,-2.804208517E0,9.475371838E-1,-6.651430130E-1
3.980935961E0,-2.885691643E0,1.016341925E0,-6.676588058E-1
3.990934727E0,-2.924505711E0,1.139006853E0,-6.174926758E-1
4.000933493E0,-2.927117825E0,1.185200691E0,-5.221576691E-1
4.010932259E0,-2.845654488E0,1.143967867E0,-3.530569077E-1
4.020930959E0,-2.794991732E0,1.055670500E0,-9.811306000E-2
4.030929725E0,-2.784866333E0,9.838905334E-1,1.545152664E-1
4.040928458E0,-2.725365162E0,9.184849262E-1,4.264574051E-1
4.050927124E0,-2.730123997E0,9.233925343E-1,6.074180603E-1
4.060925857E0,-2.713187218E0,8.848485947E-1,6.592979431E-1
4.070924590E0,-2.734580517E0,8.527293205E-1,5.990447998E-1
4.080923256E0,-2.805238724E0,9.248046875E-1,5.347471237E-1
4.090921989E0,-2.830456257E0,9.992306232E-1,4.219293594E-1
4.100920722E0,-2.785691023E0,1.025704145E0,2.605838776E-1
4.110919455E0,-2.705240726E0,1.019803047E0,1.198425293E-1
4.120918155E0,-2.746870518E0,9.739642143E-1,-1.443862915E-3
4.130916888E0,-2.834035397E0,8.335821629E-1,-4.492950439E-2
4.140915621E0,-2.900475979E0,5.205225945E-1,-4.377651215E-2
4.150914387E0,-2.916348934E0,1.970920563E-1,-6.217956543E-3
4.160913053E0,-2.975275040E0,-1.074049473E-1,1.149539948E-1
4.170911819E0,-3.046532631E0,-4.573140144E-1,2.330417633E-1
4.180910585E0,-3.103863478E0,-7.268795967E-1,3.088092804E-1
4.190909285E0,-3.138798714E0,-9.498949051E-1,3.028612137E-1
4.200908051E0,-3.117045403E0,-1.041869879E0,2.999935150E-1
4.210906817E0,-2.995531559E0,-1.074021578E0,2.247476578E-1
4.220905583E0,-2.833727121E0,-1.090421200E0,1.472930908E-1
4.230904383E0,-2.672263861E0,-1.082961559E0,3.985404968E-2
4.240903149E0,-2.535141945E0,-1.054810524E0,-1.092576981E-1
4.250901915E0,-2.459874153E0,-9.750359058E-1,-2.829732895E-1
4.260900681E0,-2.461676121E0,-7.499997616E-1,-4.334077835E-1
4.270899381E0,-2.454110146E0,-5.067176819E-1,-6.371955872E-1
4.280898147E0,-2.386938572E0,-4.265282154E-1,-8.730401993E-1
4.292517406E0,-2.230330229E0,-3.467564583E-1,-1.096115112E0
4.302516106E0,-2.177016497E0,-2.810022831E-1,-1.214433193E0
4.312514872E0,-2.165008307E0,-2.432873249E-1,-1.183484077E0
4.322513638E0,-2.008921146E0,-2.411410809E-1,-9.965906143E-1
4.332512338E0,-1.898167253E0,-2.507371902E-1,-7.656183243E-1
4.342511104E0,-1.797323227E0,-2.678568363E-1,-6.333923340E-1
4.352509904E0,-1.777982712E0,-2.542271614E-1,-6.209907532E-1
4.362508670E0,-1.745132923E0,-2.799446583E-1,-7.069120407E-1
4.372507470E0,-1.804299355E0,-2.795267105E-1,-8.463544846E-1
4.382506370E0,-1.927176118E0,-2.688648701E-1,-9.968566895E-1
4.392505270E0,-2.052531719E0,-3.400189877E-1,-1.048542976E0
4.402504270E0,-2.060646296E0,-4.215819836E-1,-1.089413643E0
4.412503203E0,-2.057156801E0,-4.747166634E-1,-1.262390137E0
4.422502236E0,-2.066365719E0,-4.534783363E-1,-1.372797012E0
4.432501269E0,-2.015307188E0,-3.517210484E-1,-1.594871998E0
4.442500269E0,-1.976179361E0,-2.041110992E-1,-1.844383240E0
4.452499302E0,-1.855038643E0,-8.738994598E-2,-2.053999901E0
4.462498435E0,-1.760751843E0,3.184938431E-2,-2.166870117E0
4.472497535E0,-1.700351477E0,1.768245697E-1,-2.193151474E0
4.482496635E0,-1.731234789E0,4.042620659E-1,-2.097478390E0
4.492495735E0,-1.760452032E0,6.057503223E-1,-1.953801632E0
4.502494835E0,-1.781873822E0,7.269430161E-1,-1.799769402E0
4.512493935E0,-1.830483198E0,8.647663593E-1,-1.613286972E0
4.522493001E0,-1.909831285E0,1.004290342E0,-1.487450600E0
4.532492067E0,-2.017746925E0,1.140877724E0,-1.269092560E0
4.542491167E0,-2.131820679E0,1.231921911E0,-1.018073082E0
4.552490200E0,-2.338182926E0,1.297465324E0,-8.451213837E-1
4.562489300E0,-2.515522957E0,1.307543516E0,-5.230617523E-1
4.572488400E0,-2.531140804E0,1.265509367E0,-1.478033066E-1
4.582487433E0,-2.408481598E0,1.190498829E0,1.776523590E-1
4.592486533E0,-2.272934914E0,1.156801701E0,4.531221390E-1
4.602485633E0,-2.169004202E0,1.137917042E0,7.253961563E-1
4.612484733E0,-2.206738472E0,1.276099443E0,9.504785538E-1
4.622483833E0,-2.315517902E0,1.527452230E0,1.130564690E0
4.632482933E0,-2.294694424E0,1.671087980E0,1.112385750E0
4.642482033E0,-2.212261677E0,1.762424707E0,1.027104378E0
4.652481099E0,-1.950862408E0,1.664469719E0,1.003569603E0
4.662480132E0,-1.638488054E0,1.272912741E0,8.756246567E-1
4.672479198E0,-1.426319480E0,8.405098915E-1,6.533498764E-1
4.682478164E0,-1.338808417E0,6.288602352E-1,3.629713058E-1
4.692477064E0,-1.302730322E0,5.792267323E-1,1.801834106E-1
4.702475930E0,-1.197583675E0,6.285371780E-1,4.922485352E-2
4.712474796E0,-1.075160980E0,5.997614861E-1,-6.432628632E-2
4.722473662E0,-9.314906597E-1,4.904079437E-1,-1.653699875E-1
4.732472495E0,-9.583265781E-1,4.441516399E-1,-1.540050507E-1
4.742471295E0,-1.057262659E0,4.842500687E-1,-1.188154221E-1
4.752470095E0,-1.106254220E0,3.700990677E-1,6.794929504E-3
4.762468828E0,-1.197855949E0,9.006607533E-2,4.589080811E-1
4.772467494E0,-1.446455598E0,-8.231818676E-2,1.025809288E0
4.782466227E0,-1.625363469E0,-2.478082180E-1,1.513806343E0
4.792464960E0,-1.738923669E0,-5.355195999E-1,1.921147346E0
4.802463660E0,-1.830339432E0,-8.258867264E-1,2.149831772E0
4.812462426E0,-2.019368172E0,-1.040323734E0,2.176054955E0
4.822461159E0,-2.242294312E0,-1.161780953E0,2.081804276E0
4.832459859E0,-2.300547600E0,-1.242807150E0,1.852280617E0
4.842458625E0,-2.342261553E0,-1.243309259E0,1.544721603E0
4.852457391E0,-2.330319643E0,-1.203498125E0,1.082529068E0
4.862456157E0,-2.311121464E0,-1.183506966E0,4.309959412E-1
4.872454923E0,-2.286213875E0,-1.173722506E0,-9.520053864E-2
4.882453689E0,-2.246294975E0,-1.177154779E0,-6.029710770E-1
4.892452455E0,-2.199802399E0,-1.174900651E0,-1.007138252E0
4.902451221E0,-2.134010553E0,-1.144602776E0,-1.320663452E0
4.912449921E0,-2.029894352E0,-1.014118671E0,-1.376226425E0
4.922448687E0,-1.940240622E0,-8.373395205E-1,-1.305932999E0
4.932447453E0,-2.005908966E0,-6.979784966E-1,-1.403565407E0
4.942446153E0,-2.085545778E0,-5.219254494E-1,-1.488448143E0
4.952444919E0,-2.054010391E0,-4.413100481E-1,-1.667250156E0
4.962443685E0,-2.095450401E0,-3.625774384E-1,-1.912884235E0
4.972442451E0,-2.163346767E0,-1.855320930E-1,-2.136523247E0
4.982441217E0,-2.142430305E0,6.617403030E-2,-2.029746532E0
4.992439983E0,-1.949462891E0,3.822071552E-1,-3.055990696E0
5.002438749E0,-2.207489252E0,6.263823509E-1,-2.875684261E0
5.012437515E0,-1.937075615E0,6.852278709E-1,-2.819432735E0
5.022436215E0,-1.898335338E0,3.696808815E-1,-2.289746761E0
5.032435015E0,-2.287559271E0,8.356189728E-2,-1.752079964E0
5.042433781E0,-2.834535122E0,-1.914199591E-1,-1.491308212E0
5.052432481E0,-3.015162945E0,-3.357374668E-1,-1.346880913E0
5.062431247E0,-2.959298611E0,-3.179938793E-1,-9.751167297E-1
5.072430013E0,-2.947825670E0,-3.505617380E-1,-7.599735260E-1
5.082428713E0,-3.119963169E0,-2.537846565E-1,-9.730005264E-1
5.092427479E0,-3.289108515E0,-2.123641968E-2,-1.018937111E0
5.102426212E0,-3.197469950E0,2.409784794E-1,-6.832513809E-1
5.112424945E0,-2.873020172E0,3.193271160E-1,-2.620077133E-1
5.122423678E0,-2.738489151E0,3.128173351E-1,-1.111631393E-1
5.132422378E0,-2.836942673E0,3.918545246E-1,-2.355661392E-1
5.142421111E0,-2.910913467E0,5.738284588E-1,-5.269927979E-1
5.152419844E0,-2.926779270E0,6.307809353E-1,-5.898332596E-1
5.162418510E0,-2.960899353E0,6.648144722E-1,-4.886178970E-1
5.172417243E0,-3.016618729E0,6.447973251E-1,-2.676496506E-1
5.182415976E0,-3.016131163E0,6.065440178E-1,-5.104637146E-2
5.192414642E0,-2.943325043E0,6.767117977E-1,3.138828278E-1
5.202413375E0,-2.716924429E0,7.351164818E-1,9.151401520E-1
5.212412108E0,-2.560160398E0,6.599669456E-1,1.317931175E0
5.222410874E0,-2.585282326E0,6.511192322E-1,1.573229790E0
5.232409640E0,-2.679460049E0,8.438279629E-1,1.598183632E0
5.242408406E0,-2.705262184E0,1.055528879E0,1.555396080E0
5.252407172E0,-2.609338760E0,1.157704353E0,1.427646637E0
5.262405938E0,-2.490417480E0,1.125987053E0,1.395384789E0
5.272404638E0,-2.471945286E0,9.724147320E-1,1.410935402E0
5.282403404E0,-2.547025204E0,7.275328636E-1,1.487320900E0
5.292402170E0,-2.646670341E0,3.091363907E-1,1.671087265E0
5.302400870E0,-2.795677423E0,-1.154389381E-1,1.921405792E0
5.312399636E0,-2.893331051E0,-5.293731689E-1,2.209853172E0
5.322398402E0,-2.943846703E0,-1.004584312E0,2.404612541E0
5.332397068E0,-2.974009037E0,-1.420258880E0,2.568547249E0
5.342395834E0,-3.041220665E0,-1.733806610E0,2.603756905E0
5.352394600E0,-3.137064219E0,-1.956362605E0,2.465279579E0
5.362393366E0,-3.261308432E0,-1.957715154E0,2.120395660E0
5.372392132E0,-3.309271336E0,-1.855307579E0,1.655981064E0
5.382390898E0,-3.381261587E0,-1.658528686E0,1.008352280E0
5.392389664E0,-3.309671402E0,-1.485187054E0,3.746385574E-1
5.402388430E0,-3.100852966E0,-1.358119249E0,-2.686328888E-1
5.412387130E0,-2.884413719E0,-1.198370337E0,-8.449201584E-1
5.422385896E0,-2.751291275E0,-8.782575130E-1,-1.276301384E0
5.432384696E0,-2.720900774E0,-5.561816692E-1,-1.525660992E0
5.442383396E0,-2.761888981E0,-3.139173985E-1,-1.696612358E0
5.452382162E0,-2.650887012E0,-1.892385483E-1,-1.844195843E0
5.462380962E0,-2.517966747E0,-2.439277172E-1,-1.958930492E0
5.472379762E0,-2.428328753E0,-3.317215443E-1,-2.076785088E0
5.482378662E0,-2.378870487E0,-3.769955635E-1,-2.090250969E0
5.492377628E0,-2.331169128E0,-4.080095291E-1,-1.966009617E0
5.502376594E0,-2.272119045E0,-3.615069389E-1,-1.710665703E0
5.512375594E0,-2.234625101E0,-3.014900684E-1,-1.516993046E0
5.522374527E0,-2.165123940E0,-2.894177437E-1,-1.484800816E0
5.532373527E0,-2.065106392E0,-3.073015213E-1,-1.534835815E0
5.542372593E0,-1.963191748E0,-2.640669346E-1,-1.689023972E0
5.552371593E0,-1.932180524E0,-1.434204578E-1,-1.826041698E0
5.562370659E0,-1.841826439E0,-1.286721230E-2,-1.877192020E0
5.572369725E0,-1.776641250E0,6.889700890E-2,-1.925242424E0
5.582368725E0,-1.840744615E0,1.159262657E-1,-1.997772217E0
5.592367791E0,-1.975707889E0,1.601936817E-1,-2.057288170E0
5.602366857E0,-2.161298275E0,1.696295738E-1,-1.888517857E0
5.612365923E0,-2.215965271E0,5.274295807E-2,-1.755467892E0
5.622364989E0,-2.293696165E0,1.208710670E-2,-1.623079777E0
5.632364055E0,-2.321343660E0,-2.057409286E-2,-1.485320091E0
5.642363121E0,-2.327497959E0,5.006027222E-2,-1.351305008E0
5.652362187E0,-2.328997612E0,1.434407234E-1,-1.282848358E0
5.662361187E0,-2.343905926E0,2.944600582E-1,-1.258296967E0
5.672360253E0,-2.394062519E0,4.953091145E-1,-1.208703995E0
5.682359319E0,-2.377566338E0,6.877295971E-1,-1.134391785E0
5.692358352E0,-2.330448627E0,8.699696064E-1,-1.054683685E0
5.702357418E0,-2.291497231E0,1.111380100E0,-8.935623169E-1
5.712356484E0,-2.176286459E0,1.289117575E0,-7.268466949E-1
5.722355550E0,-2.103985071E0,1.474908113E0,-2.628030777E-1
5.732354616E0,-2.034158230E0,1.626301050E0,4.117050171E-1
5.742353682E0,-2.147042751E0,1.634974003E0,8.830881119E-1
5.752352748E0,-2.234442234E0,1.445895672E0,1.414134026E0
5.762351781E0,-2.233418941E0,1.017731190E0,1.855007172E0
5.772350747E0,-2.085523129E0,5.264189243E-1,2.149836540E0
5.782349680E0,-2.090786934E0,2.528085709E-1,2.246144295E0
5.792348546E0,-2.279816151E0,2.350182533E-1,2.069385529E0
5.802347346E0,-2.391853333E0,4.292755127E-1,1.516370773E0
5.812346179E0,-2.189329624E0,6.100962162E-1,1.001108170E0
5.822344979E0,-1.970148563E0,8.336350918E-1,4.946327209E-1
5.832343712E0,-1.853993773E0,1.156611443E0,1.551322937E-1
5.842342445E0,-1.719946384E0,1.396568537E0,-1.722230911E-1
5.852341178E0,-1.373808861E0,1.485252380E0,-4.071416855E-1
5.862339911E0,-1.081038594E0,1.364356756E0,-3.422203064E-1
5.872338644E0,-8.798702955E-1,1.177795649E0,-2.694768906E-1
5.882337377E0,-7.964893579E-1,1.016169786E0,-2.035818100E-1
5.892336110E0,-7.273354530E-1,8.470160961E-1,-1.190376282E-1
5.902334843E0,-5.656955242E-1,5.145502090E-1,1.420783997E-2
5.912333509E0,-4.338558912E-1,8.528351784E-2,2.862901688E-1
5.922332242E0,-3.514852524E-1,-4.996589422E-1,5.196714401E-1
5.932331008E0,-3.597102165E-1,-1.015329003E0,8.093109131E-1
5.942329708E0,-4.663736820E-1,-1.457845926E0,9.865636826E-1
5.952328474E0,-7.041565180E-1,-1.770347118E0,1.118506432E0
5.962327240E0,-9.176521301E-1,-1.971954823E0,1.215252876E0
5.972326006E0,-1.112672448E0,-2.062124252E0,1.196636200E0
5.982324772E0,-1.346119642E0,-1.989982009E0,1.098159790E0
5.992323505E0,-1.482649565E0,-1.833472490E0,9.126205444E-1
6.002322271E0,-1.612287879E0,-1.531748176E0,5.242662430E-1
6.012321037E0,-1.747859120E0,-1.044908524E0,-1.302242279E-1
6.022319737E0,-1.703559637E0,-7.358633280E-1,-5.101728439E-1
6.032318503E0,-1.521468639E0,-2.401843071E-1,-1.087936401E0
6.042317269E0,-1.302030087E0,8.179497719E-2,-1.498358727E0
6.052315969E0,-1.231006503E0,3.004455566E-1,-1.688032627E0
6.062314735E0,-1.244630218E0,4.419963360E-1,-1.619809628E0
6.072313501E0,-1.105071068E0,3.544080257E-1,-1.277698517E0
6.082312201E0,-1.065448642E0,1.892840862E-1,-9.125204086E-1
6.092310967E0,-1.185201049E0,6.537604332E-2,-7.276687622E-1
6.102309733E0,-1.407936215E0,-1.531410217E-2,-5.314311981E-1
6.112308499E0,-1.523748279E0,-3.580331802E-2,-4.551830292E-1
6.122307232E0,-1.684773326E0,-7.179903984E-2,-4.368581772E-1
6.132305998E0,-1.812981725E0,-1.799454689E-1,-4.695224762E-1
6.142304731E0,-1.882702231E0,-2.400095463E-1,-5.053358078E-1
6.152303497E0,-1.968796968E0,-2.453329563E-1,-5.871610641E-1
6.162302197E0,-1.992014289E0,-1.348559856E-1,-7.218885422E-1
6.172300963E0,-2.011783123E0,9.073495865E-2,-9.209566116E-1
6.182299696E0,-2.027544498E0,2.832388878E-1,-1.030857086E0
6.192298396E0,-2.057659864E0,4.547109604E-1,-1.106382370E0
6.202297162E0,-2.125630140E0,5.353188515E-1,-1.139904022E0
6.212295928E0,-2.187247753E0,5.611176491E-1,-1.161360741E0
6.222294694E0,-2.243318081E0,5.732355118E-1,-1.152939796E0
6.232293427E0,-2.215480328E0,6.506960392E-1,-1.127813339E0
6.242292160E0,-2.151571035E0,7.122924328E-1,-1.153938293E0
6.252290893E0,-2.055880070E0,8.018960953E-1,-1.146291733E0
6.262289626E0,-2.072942257E0,9.759008884E-1,-1.118056297E0
6.272288292E0,-2.254784584E0,1.115896940E0,-1.152180672E0
6.282287025E0,-2.425682545E0,1.157084227E0,-1.098369598E0
6.292285758E0,-2.473382950E0,1.130030632E0,-1.035562515E0
6.302284424E0,-2.456133366E0,1.043090582E0,-9.342365265E-1
6.312283157E0,-2.383630753E0,1.002914667E0,-6.938934326E-1
6.322281890E0,-2.218906164E0,8.380267620E-1,-2.268228531E-1
6.332280590E0,-2.065556765E0,6.123263836E-1,2.535343170E-1
6.342279356E0,-2.013577700E0,4.655752182E-1,6.921215057E-1
6.352278122E0,-2.020948648E0,4.355013371E-1,1.006004333E0
6.362276888E0,-2.046614885E0,4.434742928E-1,1.581765175E0
6.372275654E0,-2.222889662E0,5.467603207E-1,1.942018509E0
6.382274420E0,-2.336638451E0,7.126801014E-1,1.961701393E0
6.392273186E0,-2.258568287E0,8.145570755E-1,1.688723564E0
6.402271952E0,-2.105570555E0,8.254358768E-1,1.219749451E0
6.412270652E0,-1.961460114E0,8.729014397E-1,8.248224258E-1
6.422269452E0,-1.922410965E0,8.323435783E-1,6.056480408E-1
6.432268218E0,-1.832979918E0,6.444134712E-1,6.168737411E-1
6.442266951E0,-1.813842297E0,3.160853386E-1,8.968038559E-1
6.452265717E0,-1.897436857E0,-9.897232056E-2,1.193638802E0
6.462264483E0,-2.054460764E0,-4.631323814E-1,1.411358833E0
6.472263249E0,-2.213073015E0,-7.812008858E-1,1.519195557E0
6.482262049E0,-2.363727808E0,-9.963121414E-1,1.515609741E0
6.492260815E0,-2.422287226E0,-1.011891603E0,1.352341652E0
6.502259581E0,-2.412887335E0,-8.888089657E-1,1.048972130E0
6.512258347E0,-2.278192043E0,-6.621816158E-1,6.196117401E-1
6.522257047E0,-2.137773037E0,-5.091972351E-1,2.635297775E-1
6.532255813E0,-1.991641521E0,-4.407451153E-1,2.727699280E-2
6.542254579E0,-1.844570994E0,-4.898025990E-1,-1.741142273E-1
6.552253312E0,-1.775886059E0,-5.691907406E-1,-3.008928299E-1
6.562252112E0,-1.831514597E0,-5.349199772E-1,-4.327478409E-1
6.572250945E0,-2.011143923E0,-4.009215832E-1,-6.376199722E-1
6.582249778E0,-2.210721254E0,-2.855789661E-1,-8.069953918E-1
6.592248678E0,-2.294524908E0,-3.181018829E-1,-9.879546165E-1
6.602247611E0,-2.342817783E0,-5.152244568E-1,-1.198708057E0
6.612246511E0,-2.368994236E0,-6.006665230E-1,-1.314155579E0
6.622245411E0,-2.327743053E0,-5.465085506E-1,-1.291188240E0
6.632244277E0,-2.180318594E0,-4.525752068E-1,-1.019454002E0
6.642243143E0,-1.967726469E0,-4.360826015E-1,-7.906389236E-1
6.652242009E0,-1.855317593E0,-4.448306561E-1,-6.837768555E-1
6.662240809E0,-1.760158181E0,-4.716928005E-1,-6.989116669E-1
6.672239709E0,-1.745986342E0,-4.454815388E-1,-7.666130066E-1
6.682238575E0,-1.780161142E0,-4.253582954E-1,-8.444633484E-1
6.692237408E0,-1.920842290E0,-3.484418392E-1,-1.048071861E0
6.702236274E0,-1.948502660E0,-2.732975483E-1,-1.174220562E0
6.712235140E0,-1.991512060E0,-1.862213612E-1,-1.233347893E0
6.722234006E0,-2.069962978E0,-9.092783928E-2,-1.333908081E0
6.732232872E0,-2.144340038E0,6.265830994E-2,-1.377266407E0
6.742231738E0,-2.112720728E0,1.433653831E-1,-1.394379616E0
6.752230604E0,-2.059279680E0,1.707732677E-1,-1.193653107E0
6.762229470E0,-1.932548761E0,1.340374947E-1,-9.729528427E-1
6.772228270E0,-1.900499821E0,1.006934643E-1,-8.598775864E-1
6.782227136E0,-1.907327056E0,1.651282310E-1,-8.144140244E-1
6.792226002E0,-1.932852149E0,4.169809818E-1,-8.345060349E-1
6.802224802E0,-1.918353677E0,4.785687923E-1,-8.359375000E-1
6.812223668E0,-1.889524937E0,5.487253666E-1,-8.400592804E-1
6.822222534E0,-1.872916579E0,6.331627369E-1,-7.701406479E-1
6.832221334E0,-1.885109305E0,7.543330193E-1,-6.944627762E-1
6.842220200E0,-1.850309849E0,8.448798656E-1,-5.034666061E-1
6.852219033E0,-1.866446614E0,9.469618797E-1,-2.451028824E-1
6.862217866E0,-1.875775814E0,1.004167795E0,8.933544159E-2
6.872216666E0,-1.806228280E0,1.007615805E0,4.277944565E-1
6.882215399E0,-1.563084483E0,9.561576843E-1,8.462677002E-1
6.892214132E0,-1.308970928E0,9.285492897E-1,1.227064133E0
6.902212832E0,-1.112498522E0,8.993384838E-1,1.644287109E0
6.912211498E0,-8.630616665E-1,8.189649582E-1,2.121296883E0
6.922210231E0,-9.844042063E-1,8.558607101E-1,2.346214294E0
6.932208964E0,-1.309533358E0,9.958994389E-1,2.246326447E0
6.942207630E0,-1.570241928E0,9.400875568E-1,1.613396645E0
6.952206363E0,-1.697571993E0,7.618801594E-1,1.096666336E0
6.962205129E0,-1.808478951E0,7.496728897E-1,7.268095016E-1
6.972203862E0,-1.754647255E0,7.640473843E-1,5.331697464E-1
6.982202628E0,-1.535351038E0,7.063653469E-1,6.064271927E-1
6.992201361E0,-1.219781637E0,5.268130302E-1,8.051280975E-1
7.002200127E0,-1.092799187E0,3.955378532E-1,9.906940460E-1
7.012198893E0,-1.134791851E0,3.337216377E-1,1.109272957E0
7.022197593E0,-1.162545919E0,2.873516083E-1,1.054172516E0
7.032196359E0,-1.098287940E0,1.673953533E-1,8.386316299E-1
7.042195125E0,-9.419007301E-1,-1.094319820E-1,6.074399948E-1
7.052193858E0,-8.190983534E-1,-4.631555080E-1,4.855604172E-1
7.062192624E0,-7.091417313E-1,-7.679955959E-1,5.972204208E-1
7.072191390E0,-7.586909533E-1,-1.064033628E0,8.316621780E-1
7.082190090E0,-8.584110737E-1,-1.279240370E0,9.492607117E-1
7.092188856E0,-1.006024718E0,-1.467084169E0,9.600887299E-1
7.102187622E0,-1.215884089E0,-1.553889751E0,8.453865051E-1
7.112186422E0,-1.361786962E0,-1.527885795E0,6.868047714E-1
7.122185188E0,-1.483394027E0,-1.379542828E0,4.099807739E-1
7.132183921E0,-1.568257928E0,-1.112393856E0,-2.060508728E-2
7.142182654E0,-1.689633489E0,-8.098483086E-1,-3.535032272E-1
7.152181387E0,-1.777912378E0,-4.722387791E-1,-6.438817978E-1
7.162180087E0,-1.843906164E0,-1.524336338E-1,-9.084463120E-1
7.172178853E0,-1.773778439E0,-8.920788765E-2,-1.144365311E0
7.182177619E0,-1.615365148E0,-2.003583908E-1,-1.422913551E0
7.192176319E0,-1.493597150E0,-3.880507946E-1,-1.643393040E0
7.202175119E0,-1.387499213E0,-4.604892731E-1,-1.594464779E0
7.212173885E0,-1.384445786E0,-4.185163975E-1,-1.285008430E0
7.222172651E0,-1.388062716E0,-4.023003578E-1,-7.207889557E-1
7.232171417E0,-1.521673799E0,-4.979991913E-1,-4.595050812E-1
7.242170183E0,-1.777919531E0,-5.728747845E-1,-5.203523636E-1
7.252168949E0,-2.028981686E0,-6.535615921E-1,-5.016565323E-1
7.262167682E0,-2.148140907E0,-7.561089993E-1,-4.678764343E-1
7.272166348E0,-2.190360785E0,-8.172295094E-1,-5.933418274E-1
7.282165081E0,-2.158626318E0,-7.635161877E-1,-7.196273804E-1
7.292163814E0,-2.019552708E0,-5.808689594E-1,-8.341827393E-1
7.302162480E0,-1.828408003E0,-4.133956432E-1,-8.007516861E-1
7.312161213E0,-1.716283679E0,-2.888898849E-1,-6.964149475E-1
7.322159946E0,-1.714449406E0,-2.152905464E-1,-5.490007401E-1
7.332158612E0,-1.808236122E0,-1.347839832E-1,-4.296331406E-1
7.342157345E0,-1.938622952E0,-3.913855553E-2,-3.463363647E-1
7.352156045E0,-1.983203888E0,4.742145538E-4,-2.325305939E-1
7.362154778E0,-2.013824940E0,-3.305172920E-2,-3.409671783E-1
7.372153544E0,-2.089400530E0,3.597497940E-3,-6.812143326E-1
7.382152310E0,-2.200033426E0,2.172529697E-1,-1.193933964E0
7.392151076E0,-2.198647738E0,4.831633568E-1,-1.453912735E0
7.402149842E0,-2.172529221E0,6.104910374E-1,-1.641277790E0
7.412148508E0,-2.116379261E0,8.336086273E-1,-1.766147614E0
7.422147274E0,-2.046391964E0,1.014973164E0,-1.752570152E0
7.432146074E0,-1.955693722E0,1.183151484E0,-1.579878807E0
7.442144807E0,-1.882977486E0,1.319910765E0,-1.289132118E0
7.452143607E0,-1.868526697E0,1.390428782E0,-9.780788422E-1
7.462142373E0,-1.855471015E0,1.436571360E0,-6.102161407E-1
7.472141139E0,-1.882891774E0,1.417928457E0,-3.466987610E-2
7.482139905E0,-1.874165535E0,1.364812851E0,6.120328903E-1
7.492138671E0,-1.829333186E0,1.182175875E0,1.107939720E0
7.502137404E0,-1.848382950E0,8.266866207E-1,1.820868492E0
7.512136170E0,-1.929215789E0,6.981770992E-1,2.172935486E0
7.522134870E0,-1.951533556E0,7.508966923E-1,2.205809593E0
7.532133636E0,-1.920602798E0,9.691343307E-1,2.032705307E0
7.542132402E0,-1.839081764E0,1.082437515E0,1.661380768E0
7.552131102E0,-1.913044453E0,1.078440189E0,1.419561386E0
7.562129868E0,-2.089537859E0,9.470164776E-1,1.246469498E0
7.572128634E0,-2.223932743E0,6.204421520E-1,1.270263672E0
7.582127400E0,-2.394558191E0,2.914111614E-1,1.234515190E0
7.592126166E0,-2.562149048E0,-2.622175217E-2,1.012791634E0
7.602124966E0,-2.681271553E0,-3.343732357E-1,6.677026749E-1
7.612123766E0,-2.711863995E0,-5.583677292E-1,3.420705795E-1
7.622122666E0,-2.648774862E0,-6.940479279E-1,7.790946960E-2
7.632121632E0,-2.480782270E0,-6.129522324E-1,-5.379104614E-2
7.642120598E0,-2.200036526E0,-4.594030380E-1,-1.155977249E-1
7.652119598E0,-1.900386095E0,-3.094098568E-1,5.651664734E-2
7.662118564E0,-1.511888981E0,-3.633177280E-1,1.330518723E-1
7.672117564E0,-1.369867563E0,-4.497210979E-1,1.900730133E-1
7.682116630E0,-1.375504017E0,-6.271154881E-1,1.559877396E-1
7.692115663E0,-1.395645499E0,-8.160624504E-1,1.082897186E-1
7.702114729E0,-1.483482957E0,-9.669713974E-1,4.291915894E-2
7.712113795E0,-1.622820497E0,-9.751057625E-1,-3.503704071E-2
7.722112861E0,-1.741849422E0,-8.745493889E-1,-1.971750259E-1
7.732111927E0,-1.794864893E0,-7.247223854E-1,-4.545936584E-1
7.742110993E0,-1.760585308E0,-5.467603207E-1,-7.344942093E-1
7.752110059E0,-1.655466795E0,-4.212694168E-1,-1.071694374E0
7.762109125E0,-1.456317425E0,-2.990136147E-1,-1.300379753E0
7.772108158E0,-1.353277326E0,-1.475172043E-1,-1.393603325E0
7.782107224E0,-1.287631989E0,8.252143860E-3,-1.425381184E0
7.792106290E0,-1.271884918E0,3.254818916E-2,-1.359033585E0
7.802105290E0,-1.321162224E0,-8.436512947E-2,-1.253214836E0
7.812104356E0,-1.439947486E0,-3.001854420E-1,-1.113417149E0
7.822103422E0,-1.590304375E0,-4.724702835E-1,-1.011935234E0
7.832102488E0,-1.703242064E0,-4.891345501E-1,-9.715299606E-1
7.842101554E0,-1.796275377E0,-4.876348972E-1,-9.725656509E-1
7.852100620E0,-1.834241509E0,-4.560592175E-1,-1.043654442E0
7.862099686E0,-1.849241018E0,-4.503383636E-1,-1.056353569E0
7.872098752E0,-1.828984976E0,-3.494307995E-1,-1.066302299E0
7.882097752E0,-1.787754416E0,-2.364070415E-1,-1.028695107E0
7.892096818E0,-1.811220169E0,-1.373107433E-1,-9.916028976E-1
7.902095851E0,-1.783146143E0,-4.541468620E-2,-9.454727173E-1
7.912094817E0,-1.725596547E0,3.094673157E-3,-9.370794296E-1
7.922093750E0,-1.740002990E0,9.070420265E-2,-1.023248672E0
7.932092616E0,-1.772365451E0,2.312481403E-1,-1.129385471E0
7.942091416E0,-1.866958141E0,4.368965626E-1,-1.243409157E0
7.952090249E0,-1.977099776E0,5.915305614E-1,-1.296160221E0
7.962089049E0,-2.002815962E0,7.005279064E-1,-1.217998505E0
7.972087849E0,-2.033961058E0,7.569663525E-1,-1.099498272E0
7.982086582E0,-2.051479340E0,7.558734417E-1,-1.036358833E0
7.992085282E0,-1.997147918E0,7.269580364E-1,-9.353313446E-1
8.002084015E0,-1.954534531E0,8.697264194E-1,-7.063112259E-1
8.012082748E0,-1.922221661E0,1.051461697E0,-2.818288803E-1
8.022081414E0,-1.837555170E0,1.180894852E0,1.645336151E-1
8.032080147E0,-1.577094078E0,1.242835045E0,6.972017288E-1
8.042078880E0,-1.363230824E0,1.198327065E0,1.225581169E0
8.052077546E0,-1.282404542E0,1.117156506E0,1.594068527E0
8.062076279E0,-1.302553415E0,8.835978508E-1,1.942164421E0
8.072074979E0,-1.615099669E0,8.178937435E-1,2.026736259E0
8.082073712E0,-1.988620758E0,9.464972019E-1,1.714721680E0
8.092072478E0,-2.244294643E0,1.095669270E0,1.157102585E0
8.102071244E0,-2.340706825E0,1.195182323E0,6.670694351E-1
8.112070010E0,-2.376765728E0,1.335074186E0,3.196849823E-1
8.122068943E0,-2.238136530E0,1.491272449E0,1.323490143E-1
8.132067609E0,-1.856297731E0,1.414155483E0,3.424558640E-1
8.142066342E0,-1.370867133E0,1.140905380E0,6.988801956E-1
8.152065075E0,-1.041427732E0,8.301711082E-1,9.513883591E-1
8.162063775E0,-8.440838456E-1,6.263246536E-1,1.199088097E0
8.172062541E0,-7.728704810E-1,5.274035931E-1,1.364487648E0
8.182061307E0,-6.855160594E-1,3.181431293E-1,1.496985435E0
8.192060007E0,-6.153374910E-1,1.313972473E-1,1.431034088E0
8.202058807E0,-5.421871543E-1,-9.461808205E-2,1.078807831E0
8.212057573E0,-3.039802313E-1,-4.438781738E-1,8.309955597E-1
8.222056339E0,-1.108578444E-1,-8.629090786E-1,6.663265228E-1
8.232055105E0,-1.097238064E-1,-1.093347549E0,7.154550552E-1
8.242053871E0,-2.081491947E-1,-1.215360165E0,6.840667725E-1
8.252052637E0,-2.193832397E-1,-1.301410675E0,6.614656448E-1
8.262051403E0,-2.982299328E-1,-1.241373301E0,5.279064178E-1
8.272050103E0,-5.014843345E-1,-1.151522398E0,1.853885651E-1
8.282048903E0,-6.286935210E-1,-1.033956766E0,-3.757934570E-1
8.292047703E0,-6.035071015E-1,-8.948724270E-1,-7.620506287E-1
8.302046403E0,-6.410908699E-1,-6.564075947E-1,-1.058076859E0
8.312045169E0,-8.667891622E-1,-3.369154930E-1,-1.368178368E0
8.322043935E0,-1.097801566E0,-1.199324131E-1,-1.750844479E0
8.332042701E0,-1.263271332E0,-8.860731125E-2,-2.056068897E0
8.342041467E0,-1.286349177E0,-2.762155533E-1,-2.138110638E0
8.352040233E0,-1.208553791E0,-5.749607086E-1,-1.999537468E0
8.362038999E0,-1.222065449E0,-6.940746307E-1,-1.735956192E0
8.372037765E0,-1.223920345E0,-6.125404835E-1,-1.493566036E0
8.382036465E0,-1.008111477E0,-5.724008083E-1,-1.045137882E0
8.392035198E0,-8.580061197E-1,-5.671241283E-1,-7.541589737E-1
8.402033931E0,-8.451817036E-1,-6.303355694E-1,-6.736803055E-1
8.412032597E0,-9.354902506E-1,-7.020030022E-1,-7.260341644E-1
8.422031163E0,-1.096332669E0,-7.606997490E-1,-9.258489609E-1
8.432029929E0,-1.292072773E0,-7.580497265E-1,-1.239780426E0
8.442028629E0,-1.396741390E0,-7.385120392E-1,-1.459396362E0
8.452027395E0,-1.426647902E0,-7.114849091E-1,-1.535788536E0
8.462026128E0,-1.451220870E0,-6.517531872E-1,-1.607585430E0
8.472024861E0,-1.766621351E0,-3.359687328E-1,-1.211366653E0
8.482023594E0,-1.715022802E0,-1.831359863E-1,-9.508113861E-1
8.492022360E0,-1.660959959E0,-6.392526627E-2,-8.553915024E-1
8.502021093E0,-1.583406568E0,8.392405510E-2,-7.876558304E-1
8.512019859E0,-1.582508326E0,2.320735455E-1,-7.550706863E-1
8.522018559E0,-1.596950293E0,3.633263111E-1,-7.816238403E-1
8.532017325E0,-1.663416982E0,5.106377602E-1,-9.364376068E-1
8.542016091E0,-1.772600889E0,5.795738697E-1,-1.071567059E0
8.552014791E0,-1.846057177E0,5.508646965E-1,-1.161510468E0
8.562013557E0,-1.916112781E0,5.197641850E-1,-1.149408817E0
8.572012323E0,-2.008650303E0,5.941424370E-1,-1.096201420E0
8.582011056E0,-2.063181639E0,7.126903534E-1,-9.329252243E-1
8.592009789E0,-2.069420338E0,8.521852493E-1,-7.482633591E-1
8.602008555E0,-2.069556236E0,9.739308357E-1,-5.589294434E-1
8.612007321E0,-2.080706358E0,1.113766670E0,-3.528690338E-1
8.622006087E0,-2.021321297E0,1.202663183E0,-1.709671021E-1
8.632004787E0,-1.856709480E0,1.258172989E0,1.206979752E-1
8.642003553E0,-1.703824759E0,1.191699505E0,4.383087158E-1
8.652002319E0,-1.593281031E0,1.142644167E0,8.199062347E-1
8.662001019E0,-1.602293491E0,1.153732061E0,1.277407646E0
8.671999785E0,-1.588158250E0,1.220667124E0,1.715660095E0
8.681998551E0,-1.596637249E0,1.269463301E0,2.070634842E0
8.691997284E0,-1.636715174E0,1.238424778E0,2.194202423E0
8.701996084E0,-1.782222152E0,1.207933664E0,2.098305702E0
8.711994917E0,-1.975652337E0,1.183142185E0,1.667823792E0
8.721993750E0,-2.170491219E0,1.178530693E0,1.141296387E0
8.731992650E0,-2.119526148E0,1.007936239E0,8.450565338E-1
8.741991550E0,-1.787515998E0,8.468661308E-1,7.203702927E-1
8.751990483E0,-1.520890713E0,7.355144024E-1,6.437997818E-1
8.761989383E0,-1.506114006E0,6.106772423E-1,5.934247971E-1
8.771988216E0,-1.558533311E0,3.117017746E-1,5.522384644E-1
8.781987116E0,-1.753946304E0,-1.569685936E-1,5.265903473E-1
8.791985982E0,-1.967002392E0,-5.429601669E-1,4.456205368E-1
8.801984782E0,-2.198333025E0,-7.913241386E-1,3.361644745E-1
8.811983648E0,-2.556619644E0,-8.470509052E-1,2.632579803E-1
8.821982514E0,-2.723616123E0,-9.424784184E-1,2.128257751E-1
8.831981380E0,-2.663705111E0,-1.037905216E0,7.785320282E-2
8.841980246E0,-2.577576876E0,-1.093093634E0,-1.148462296E-1
8.851979112E0,-2.399260998E0,-1.121554613E0,-3.092517853E-1
8.861977978E0,-2.141413689E0,-1.114481688E0,-4.449205399E-1
8.871976844E0,-1.909755945E0,-1.019566059E0,-5.146942139E-1
8.881975610E0,-1.751405835E0,-8.056225777E-1,-6.199855804E-1
8.891974476E0,-1.725141287E0,-6.252112389E-1,-8.133935928E-1
8.901973342E0,-1.734465480E0,-5.082521439E-1,-1.062519550E0
8.911972142E0,-1.690262318E0,-4.959044456E-1,-1.363595963E0
8.921971008E0,-1.626205444E0,-5.664474964E-1,-1.622608185E0
8.931969874E0,-1.624009728E0,-6.069700718E-1,-1.757884502E0
8.941968674E0,-1.628236532E0,-5.924408436E-1,-1.776405811E0
8.951967540E0,-1.581640244E0,-5.957896709E-1,-1.620777130E0
8.961966406E0,-1.533888817E0,-6.088285446E-1,-1.447066784E0
8.971965272E0,-1.517898679E0,-6.268446445E-1,-1.368147373E0
8.981964138E0,-1.543256164E0,-6.220138073E-1,-1.464339256E0
8.991962971E0,-1.525025845E0,-5.931723118E-1,-1.658698082E0
9.001961804E0,-1.509027243E0,-5.833244324E-1,-1.881848812E0
9.011960604E0,-1.481527328E0,-5.454306602E-1,-2.081733704E0
9.021959337E0,-1.433686733E0,-4.838690758E-1,-2.299461365E0
9.031958070E0,-1.431568861E0,-3.597557545E-1,-2.539900303E0
9.041956803E0,-1.428112268E0,-2.230567932E-1,-2.774661541E0
9.051955436E0,-1.557474256E0,-2.252149582E-2,-2.941885471E0
9.061954169E0,-1.794897914E0,1.955668926E-1,-3.076848984E0
9.071952902E0,-1.828841925E0,1.757640839E-1,-2.787891388E0
9.081951635E0,-1.724843502E0,-5.864286423E-2,-2.392725468E0
9.091950368E0,-1.757887602E0,-1.975424290E-1,-2.196664333E0
9.101949101E0,-1.835192680E0,-9.224772453E-2,-1.957228184E0
9.111947867E0,-1.706052303E0,3.589749336E-2,-1.664955616E0
9.121946633E0,-1.568475723E0,2.234165668E-1,-1.291091442E0
9.131945299E0,-1.618073106E0,3.216443062E-1,-9.053363800E-1
9.141944032E0,-1.670403600E0,3.650467396E-1,-4.170398712E-1
9.151942765E0,-1.649814844E0,4.319601059E-1,2.464237213E-1
9.161941465E0,-1.540913343E0,5.589776039E-1,9.863243103E-1
9.171940231E0,-1.395380855E0,7.152075768E-1,1.466315269E0
9.181939031E0,-1.259700656E0,9.487862587E-1,1.794323921E0
9.191937731E0,-1.182441831E0,1.273714542E0,1.950604439E0
9.201936531E0,-1.211235642E0,1.461585760E0,1.933221817E0
9.211935297E0,-1.225943208E0,1.399300575E0,1.939188004E0
9.221934063E0,-1.258729696E0,1.117175817E0,2.079689980E0
9.231932829E0,-1.460358381E0,1.029503345E0,2.167886734E0
9.241931595E0,-1.772743344E0,1.152636290E0,2.148291588E0
9.251930361E0,-2.016126633E0,1.432898521E0,1.891507149E0
9.261929127E0,-1.952006221E0,1.541518450E0,1.556416512E0
9.271927827E0,-1.807981253E0,1.570372343E0,1.263305664E0
9.281926593E0,-1.655059576E0,1.571392536E0,1.029060364E0
9.291925359E0,-1.485392809E0,1.559993744E0,9.158782959E-1
9.301924059E0,-1.259479046E0,1.539380312E0,9.935588837E-1
9.311922825E0,-9.449895024E-1,1.379029989E0,1.260789871E0
9.321921591E0,-7.306217551E-1,1.130383492E0,1.468194962E0
9.331920357E0,-6.211793423E-1,9.104382992E-1,1.447100639E0
9.341919123E0,-6.235005856E-1,8.036088943E-1,1.241501808E0
9.351917889E0,-5.684325695E-1,6.735506058E-1,9.675779343E-1
9.361916655E0,-4.231051207E-1,4.374577999E-1,6.961555481E-1
9.371915421E0,-1.535786390E-1,1.922392845E-2,5.427360535E-1
9.381914121E0,8.746135235E-2,-4.900786877E-1,5.314826965E-1
9.391912887E0,1.323460340E-1,-8.495645523E-1,8.043060303E-1
9.401911653E0,1.797930002E-1,-1.176863432E0,1.188451767E0
9.411910319E0,1.379125118E-1,-1.528856277E0,1.643832207E0
9.421909052E0,1.637113094E-2,-1.768909097E0,1.808289528E0
9.431907818E0,-2.385622263E-1,-1.912330151E0,1.798307419E0
9.441906518E0,-5.041853189E-1,-2.038602591E0,1.577153206E0
9.451905284E0,-7.573437691E-1,-2.069509268E0,1.210912704E0
9.461904017E0,-9.765374660E-1,-1.959944606E0,7.649774551E-1
9.471902750E0,-1.171034098E0,-1.697554827E0,2.330951691E-1
9.481901483E0,-1.295353770E0,-1.422678709E0,-1.345968246E-1
9.491900216E0,-1.382393837E0,-1.173160553E0,-6.335477829E-1
9.501898916E0,-1.433639050E0,-9.284012318E-1,-1.205306530E0
9.511897649E0,-1.424465656E0,-8.118963242E-1,-1.657696724E0
9.521896349E0,-1.451624036E0,-6.937844753E-1,-1.959108829E0
9.531895115E0,-1.442596793E0,-6.470229626E-1,-1.980028152E0
9.541893881E0,-1.386287928E0,-6.864070892E-1,-1.835295200E0
9.551892714E0,-1.273771763E0,-7.375032902E-1,-1.538887978E0
9.561891514E0,-1.246874094E0,-7.792847157E-1,-1.236114025E0
9.571890280E0,-1.276050210E0,-7.870442867E-1,-1.049588203E0
9.581889046E0,-1.321603417E0,-7.828292847E-1,-1.021526337E0
9.591887812E0,-1.437197447E0,-7.385756969E-1,-1.131832600E0
9.601886578E0,-1.525995970E0,-6.779539585E-1,-1.334878922E0
9.611885344E0,-1.628004193E0,-6.273987293E-1,-1.513015747E0
9.621884110E0,-1.728274107E0,-5.211701393E-1,-1.563407898E0
9.631882810E0,-1.803963542E0,-4.258160591E-1,-1.598609924E0
9.641881576E0,-1.837852597E0,-3.580174446E-1,-1.592388630E0
9.651880342E0,-1.872916937E0,-2.726845741E-1,-1.517917156E0
9.661879042E0,-1.836633086E0,-5.255460739E-2,-1.478239536E0
9.671877808E0,-1.787485838E0,1.821789742E-1,-1.540412903E0
9.681876574E0,-1.701695442E0,3.727753162E-1,-1.575552464E0
9.691875274E0,-1.540692687E0,5.335888863E-1,-1.627729893E0
9.701874040E0,-1.499868989E0,6.641771793E-1,-1.599696636E0
9.711872806E0,-1.511470675E0,7.839710712E-1,-1.475871086E0
9.721871606E0,-1.561091542E0,7.991042137E-1,-1.302519798E0
9.731870372E0,-1.674943924E0,7.709808350E-1,-1.004758835E0
9.741869172E0,-1.794609904E0,7.565193176E-1,-7.114429474E-1
9.751867972E0,-1.826237679E0,6.980862617E-1,-1.875610352E-1
9.761866872E0,-1.791763306E0,6.662645340E-1,1.577138901E-1
9.771865772E0,-1.795600295E0,6.291594505E-1,5.373401642E-1
9.781864738E0,-1.819774747E0,7.465641499E-1,8.289785385E-1
9.791863738E0,-1.760648012E0,9.167256355E-1,1.054224968E0
9.801862704E0,-1.704850078E0,1.033568859E0,1.160448074E0
9.811861737E0,-1.780216336E0,1.134933233E0,1.202748299E0
9.821860770E0,-1.786511660E0,1.071006060E0,1.203712463E0
9.831859803E0,-1.771562457E0,9.622933865E-1,1.200510979E0
9.841858903E0,-1.748758435E0,9.497547150E-1,1.244850159E0
9.851857869E0,-1.796272278E0,1.049393177E0,1.313175201E0
9.861856935E0,-1.823132038E0,1.207751036E0,1.321867943E0
9.871856035E0,-1.841104984E0,1.345036507E0,1.287858009E0
9.881855068E0,-1.811541796E0,1.416803122E0,1.158012390E0
9.891854168E0,-1.735555887E0,1.308853865E0,9.776668549E-1
9.901853268E0,-1.762920260E0,1.123199701E0,8.494052887E-1
9.911852301E0,-1.832475662E0,9.531652927E-1,7.078962326E-1
9.921851401E0,-1.778475285E0,7.021710873E-1,6.075973511E-1
9.931850501E0,-1.657341242E0,5.235717297E-1,6.297597885E-1
9.941849534E0,-1.486714482E0,3.252098560E-1,4.846305847E-1
9.951848634E0,-1.341069579E0,1.465926170E-1,3.253154755E-1
9.961847734E0,-1.192958117E0,-2.861261368E-3,1.493377686E-1
9.971846834E0,-1.223810911E0,-1.070799828E-1,-3.833770752E-2
9.981845934E0,-1.300738692E0,-1.481175423E-1,-2.419338226E-1
9.991845034E0,-1.342067719E0,-2.279171944E-1,-4.269084930E-1
1.000184413E1,-1.323167086E0,-3.842573166E-1,-5.184469223E-1
1.001184323E1,-1.284138680E0,-5.351116657E-1,-5.117387772E-1
1.002184227E1,-1.254394293E0,-7.120134830E-1,-5.405845642E-1
1.003184137E1,-1.210196018E0,-8.283743858E-1,-6.052856445E-1
1.004184043E1,-1.167781949E0,-9.421641827E-1,-5.846729279E-1
1.005183943E1,-1.209730148E0,-9.444861412E-1,-6.327953339E-1
1.006183840E1,-1.286072493E0,-8.517968655E-1,-7.982072830E-1
1.007183730E1,-1.335388422E0,-7.323930264E-1,-1.000164986E0
1.008183620E1,-1.339034677E0,-5.557036400E-1,-1.196239948E0
1.009183510E1,-1.420148015E0,-3.791563511E-1,-1.325027943E0
1.010183393E1,-1.556509733E0,-2.645318508E-1,-1.420066833E0
1.011183276E1,-1.622370720E0,-2.804799080E-1,-1.339966774E0
1.012183156E1,-1.570725203E0,-3.691644669E-1,-1.208629131E0
1.013183027E1,-1.501503348E0,-4.167068005E-1,-1.101405621E0
1.014182896E1,-1.330394983E0,-4.790170193E-1,-9.126453400E-1
1.015182770E1,-1.132186651E0,-5.072436333E-1,-7.171812057E-1
1.016182636E1,-1.099807024E0,-5.371749401E-1,-5.590009689E-1
1.017182510E1,-1.117059231E0,-5.990877151E-1,-3.935346603E-1
1.018182386E1,-1.197029352E0,-6.518547535E-1,-4.230575562E-1
1.019182256E1,-1.360276699E0,-6.487140656E-1,-5.204257965E-1
1.020182133E1,-1.548684955E0,-5.611279011E-1,-7.335338593E-1
1.021182010E1,-1.661281824E0,-4.556615353E-1,-8.921985626E-1
1.022181886E1,-1.673120141E0,-4.776091576E-1,-1.053850174E0
1.023181763E1,-1.689576626E0,-4.323410988E-1,-1.217344284E0
1.024181639E1,-1.711666346E0,-2.999529839E-1,-1.302449226E0
1.025181516E1,-1.677701116E0,-1.016154289E-1,-1.305551529E0
1.026181392E1,-1.645244837E0,6.688809395E-2,-1.318817139E0
1.027181262E1,-1.638564348E0,1.481628418E-1,-1.382094383E0
1.028181139E1,-1.602080107E0,2.938122749E-1,-1.487439632E0
1.029181016E1,-1.630536437E0,5.599277020E-1,-1.582472324E0
1.030180886E1,-1.638962269E0,7.660648823E-1,-1.588670731E0
1.031180762E1,-1.596474528E0,9.191403389E-1,-1.336593628E0
1.032180636E1,-1.550165415E0,8.937907219E-1,-1.080739021E0
1.033180512E1,-1.571129560E0,8.434009552E-1,-8.478574753E-1
1.034180389E1,-1.630373240E0,9.061009884E-1,-6.448907852E-1
1.035180265E1,-1.643066406E0,1.058784723E0,-5.033807755E-1
1.036180142E1,-1.648984671E0,1.171028852E0,-3.712244034E-1
1.037180019E1,-1.617738008E0,1.249824762E0,-3.236532211E-1
1.038179889E1,-1.564350367E0,1.219613791E0,-2.209129333E-1
1.039179762E1,-1.535219193E0,1.159980536E0,-5.446624756E-2
1.040179638E1,-1.488590121E0,1.040622950E0,2.201356888E-1
1.041179509E1,-1.532930493E0,9.727573395E-1,6.179094315E-1
1.042179385E1,-1.655193925E0,9.703052044E-1,1.001030922E0
1.043179265E1,-1.877122164E0,1.085581541E0,1.348532677E0
1.044179138E1,-2.064473391E0,1.227827311E0,1.542116165E0
1.045179018E1,-2.166059732E0,1.321127176E0,1.437076569E0
1.046178895E1,-2.099142551E0,1.312986851E0,9.914445877E-1
1.047178772E1,-1.860708475E0,1.159796476E0,5.497541428E-1
1.048178645E1,-1.599786520E0,1.016605616E0,4.550724030E-1
1.049178518E1,-1.359515429E0,8.203620911E-1,5.145463943E-1
1.050178392E1,-1.157603502E0,5.794370174E-1,7.708139420E-1
1.051178265E1,-1.033217192E0,4.054391384E-1,9.447956085E-1
1.052178131E1,-8.929044604E-1,2.809712887E-1,9.869918823E-1
1.053178005E1,-6.707991362E-1,5.936622620E-5,9.890432358E-1
1.054177878E1,-2.660705447E-1,-3.062610626E-1,9.825153351E-1
1.055177748E1,1.001265049E-1,-6.936392784E-1,1.197520256E0
1.056177621E1,3.958179951E-1,-1.044946194E0,1.273079872E0
1.057177495E1,4.479495287E-1,-1.298720002E0,1.479699135E0
1.058177368E1,4.741401672E-1,-1.531797290E0,1.631030083E0
1.059177241E1,3.364245892E-1,-1.705698490E0,1.819169998E0
1.060177118E1,1.084475517E-1,-1.761274338E0,1.771738052E0
1.061176994E1,-1.247504950E-1,-1.775162458E0,1.544316292E0
1.062176871E1,-3.770886064E-1,-1.639974594E0,1.089868546E0
1.063176744E1,-5.875646472E-1,-1.419959307E0,6.015233994E-1
1.064176621E1,-7.426655293E-1,-1.160490394E0,1.766519547E-1
1.065176498E1,-8.179306388E-1,-8.651938438E-1,-2.667922974E-1
1.066176368E1,-7.646941543E-1,-6.946272850E-1,-6.153106689E-1
1.067176244E1,-6.034742594E-1,-5.778009892E-1,-9.397096634E-1
1.068176121E1,-4.462516904E-1,-4.847617149E-1,-1.311056137E0
1.069175991E1,-3.339946866E-1,-4.428892136E-1,-1.661295891E0
1.070175867E1,-3.461890221E-1,-3.780755997E-1,-1.854876041E0
1.071175744E1,-4.696730971E-1,-3.505504131E-1,-1.914957047E0
1.072175620E1,-6.273769736E-1,-4.532599449E-1,-1.790494919E0
1.073175497E1,-7.671924829E-1,-6.198046207E-1,-1.561825752E0
1.074175374E1,-9.786103964E-1,-6.974251270E-1,-1.444863319E0
1.075175247E1,-1.182138085E0,-6.718103886E-1,-1.421164513E0
1.076175124E1,-1.262581825E0,-5.720088482E-1,-1.405716419E0
1.077174994E1,-1.288442373E0,-4.220988750E-1,-1.549146652E0
1.078174870E1,-1.309608698E0,-3.726491928E-1,-1.540071011E0
1.079174747E1,-1.192053795E0,-4.060859680E-1,-1.290771008E0
1.080174617E1,-1.074077129E0,-4.995024204E-1,-8.688106537E-1
1.081174493E1,-1.066993833E0,-5.182967186E-1,-5.540037155E-1
1.082174370E1,-1.028251052E0,-5.263495445E-1,-2.698354721E-1
1.083174247E1,-1.061656713E0,-5.005564690E-1,-1.242351532E-1
1.084174130E1,-1.157977581E0,-4.483399391E-1,-7.732391357E-2
1.085174016E1,-1.267328262E0,-3.123769760E-1,-2.370786667E-1
1.086173906E1,-1.381511927E0,-1.220924854E-1,-5.889930725E-1
1.087173803E1,-1.466930151E0,3.513455391E-2,-1.095133781E0
1.088173696E1,-1.584098577E0,1.839942932E-1,-1.396761417E0
1.089173596E1,-1.646616459E0,3.536026478E-1,-1.570922852E0
1.090173496E1,-1.630512953E0,5.563848019E-1,-1.641172409E0
1.091173396E1,-1.654744983E0,7.259852886E-1,-1.654333591E0
1.092173303E1,-1.597911596E0,8.894643784E-1,-1.568806648E0
1.093173206E1,-1.610619903E0,1.038037777E0,-1.420433044E0
1.094173106E1,-1.622385263E0,1.242155552E0,-1.097254753E0
1.095173013E1,-1.554132700E0,1.273260832E0,-7.219123840E-1
1.096172920E1,-1.471545219E0,1.157659769E0,-4.261999130E-1
1.097172826E1,-1.606046438E0,1.115493536E0,-4.035568237E-2
1.098172733E1,-1.641085386E0,1.001943588E0,3.800783157E-1
1.099172639E1,-1.705313683E0,8.836750984E-1,9.046955109E-1
1.100172546E1,-1.847536802E0,8.040332794E-1,1.572253227E0
1.101172452E1,-1.955950260E0,7.966253757E-1,1.943527222E0
1.102172352E1,-2.051493168E0,8.721866608E-1,2.076647758E0
1.103172259E1,-2.157864571E0,1.160272360E0,1.828058243E0
1.104172166E1,-2.278802395E0,1.460644007E0,1.335517883E0
1.105172066E1,-2.264936447E0,1.521650314E0,7.749843597E-1
1.106171972E1,-2.126353741E0,1.314180851E0,4.597520828E-1
1.107171876E1,-1.992779374E0,9.595224857E-1,3.983325958E-1
1.108171779E1,-1.947637796E0,5.642881393E-1,6.095113754E-1
1.109171682E1,-1.999240398E0,1.798732281E-1,9.741048813E-1
1.110171586E1,-2.067047119E0,-1.701159477E-1,1.197925568E0
1.111171489E1,-2.159810781E0,-4.497270584E-1,1.218798637E0
1.112171395E1,-2.348161221E0,-6.830446720E-1,1.084770203E0
1.113171295E1,-2.413333416E0,-8.947792053E-1,9.383888245E-1
1.114171195E1,-2.379062414E0,-1.081561208E0,8.452739716E-1
1.115171089E1,-2.278316975E0,-1.195016503E0,8.070707321E-1
1.116170975E1,-2.146574020E0,-1.239378214E0,6.726694107E-1
1.117170862E1,-1.907206535E0,-1.179676890E0,4.230871201E-1
1.118170748E1,-1.697375059E0,-1.080509424E0,1.767921448E-2
1.119170625E1,-1.581178427E0,-1.052768946E0,-1.673898697E-1
1.120170505E1,-1.448877811E0,-9.370837212E-1,-4.996738434E-1
1.121170378E1,-1.560898900E0,-7.408282757E-1,-7.848806381E-1
1.122170252E1,-1.678507805E0,-4.423177242E-1,-1.137782097E0
1.123170125E1,-1.674694300E0,-2.541456223E-1,-1.368933678E0
1.124169998E1,-1.624679565E0,-1.347124577E-1,-1.624542713E0
1.125169875E1,-1.514208078E0,-1.283743382E-1,-1.809231281E0
1.126169748E1,-1.357363105E0,-1.779038906E-1,-1.875883579E0
1.127169618E1,-1.162224054E0,-2.133510113E-1,-1.762455463E0
1.128169492E1,-9.457287192E-1,-2.747752666E-1,-1.521859646E0
1.129169365E1,-8.645471334E-1,-3.600559235E-1,-1.240812302E0
1.130169235E1,-8.976534009E-1,-4.810569286E-1,-1.068485260E0
1.131169111E1,-1.017013550E0,-6.664886475E-1,-1.029519081E0
1.132168988E1,-1.170253396E0,-7.672064304E-1,-1.057360649E0
1.133168865E1,-1.263932109E0,-8.454866409E-1,-1.148449898E0
1.134168741E1,-1.411240816E0,-8.528563976E-1,-1.213229656E0
1.135168618E1,-1.503685951E0,-7.776305676E-1,-1.265846252E0
1.136168494E1,-1.629302621E0,-6.009411812E-1,-1.445192337E0
1.137168374E1,-1.686497688E0,-4.025797844E-1,-1.612017632E0
1.138168248E1,-1.703323245E0,-2.908515930E-1,-1.635149479E0
1.139168128E1,-1.689307809E0,-2.552721500E-1,-1.416512966E0
1.140168008E1,-1.600909233E0,-3.701591492E-1,-1.072076797E0
1.141167881E1,-1.707111120E0,-4.181125164E-1,-9.507379532E-1
1.142167758E1,-1.731641769E0,-3.629055023E-1,-8.386325836E-1
1.143167634E1,-1.783786058E0,-2.032654285E-1,-7.974977493E-1
1.144167504E1,-1.809686899E0,-8.857035637E-2,-8.768157959E-1
1.145167381E1,-1.927222967E0,1.892979145E-1,-1.076268196E0
1.146167257E1,-1.999800205E0,3.741631508E-1,-1.195394993E0
1.147167134E1,-2.034752131E0,5.170552731E-1,-1.205348969E0
1.148167007E1,-2.086249113E0,6.870794296E-1,-1.086675644E0
1.149166884E1,-2.053897858E0,8.459024429E-1,-9.303836823E-1
1.150166761E1,-1.928744078E0,9.588761330E-1,-6.379108429E-1
1.151166637E1,-1.801606297E0,1.111205101E0,-3.166303635E-1
1.152166507E1,-1.628705263E0,1.214390993E0,2.273273468E-2
1.153166384E1,-1.239083290E0,1.104022264E0,3.859434128E-1
1.154166260E1,-9.377275109E-1,9.865541458E-1,7.608947754E-1
1.155166127E1,-9.033420086E-1,9.074752331E-1,1.064717293E0
1.156166004E1,-1.176406860E0,9.352221489E-1,1.422957420E0
1.157165877E1,-1.430113316E0,1.062675714E0,1.423037529E0
1.158165753E1,-1.570059061E0,1.140572071E0,1.209912300E0
1.159165630E1,-1.435189366E0,1.091164827E0,9.211397171E-1
1.160165503E1,-1.315379262E0,1.048895359E0,8.698368073E-1
1.161166794E1,-1.122828484E0,1.041333675E0,7.985429764E-1
1.162166667E1,-6.513217688E-1,9.804008007E-1,9.554662704E-1
1.163166534E1,-2.018333077E-1,8.885669708E-1,1.297146797E0
1.164166407E1,1.064803600E-1,7.620189190E-1,1.720835686E0
1.165166280E1,3.153094053E-1,6.298301220E-1,1.923297882E0
1.166166147E1,4.704858065E-1,6.907637119E-1,2.017179489E0
1.167166020E1,5.785223246E-1,7.632038593E-1,1.866387367E0
1.168165894E1,8.158904314E-1,5.630586147E-1,1.552543640E0
1.169165760E1,1.077924013E0,1.889977455E-1,1.316993713E0
1.170165637E1,1.222195506E0,-2.100257874E-1,1.230757713E0
1.171165510E1,1.251112223E0,-4.891543388E-1,1.295831680E0
1.172165383E1,1.156646132E0,-7.326872349E-1,1.387686729E0
1.173165260E1,9.952150583E-1,-9.044797421E-1,1.437433243E0
1.174165137E1,8.020786047E-1,-1.123419166E0,1.343234062E0
1.175165013E1,5.811961889E-1,-1.328776360E0,1.069866180E0
1.176164890E1,3.110677004E-1,-1.434943438E0,6.607589722E-1
1.177164760E1,-1.000928879E-2,-1.396583796E0,1.974916458E-1
1.178164636E1,-3.461557627E-1,-1.190241575E0,-3.041458130E-1
1.179164513E1,-6.243734360E-1,-1.007403851E0,-7.944288254E-1
1.180164383E1,-7.702481151E-1,-8.909754753E-1,-1.288306236E0
1.181164260E1,-8.228635192E-1,-8.021304607E-1,-1.800863743E0
1.182164136E1,-9.153606892E-1,-6.771495342E-1,-2.218325615E0
1.183164013E1,-9.169775248E-1,-5.812311172E-1,-2.403536320E0
1.184163889E1,-7.270657420E-1,-5.643987656E-1,-2.317547321E0
1.185163766E1,-6.104937792E-1,-5.370974541E-1,-2.034543037E0
1.186163643E1,-6.414990425E-1,-6.033136845E-1,-1.645429611E0
1.187163519E1,-7.686291933E-1,-7.015006542E-1,-1.304975033E0
1.188163389E1,-9.208974838E-1,-7.889964581E-1,-1.241348267E0
1.189163266E1,-1.109066248E0,-8.729872704E-1,-1.228653431E0
1.190163142E1,-1.326353431E0,-9.218757153E-1,-1.313988686E0
1.191163012E1,-1.429548979E0,-9.101772308E-1,-1.396420956E0
1.192162889E1,-1.469732046E0,-8.639574051E-1,-1.456828117E0
1.193162769E1,-1.544765472E0,-7.148239613E-1,-1.540322304E0
1.194162646E1,-1.621952176E0,-5.127265453E-1,-1.608865738E0
1.195162529E1,-1.686621666E0,-2.627179623E-1,-1.741380215E0
1.196162419E1,-1.869231820E0,2.009782791E-1,-1.892695904E0
1.197162309E1,-2.088865280E0,6.357216835E-1,-2.125822067E0
1.198162199E1,-2.231632710E0,1.018265486E0,-2.221578121E0
1.199162089E1,-2.198808670E0,1.282182217E0,-2.279136181E0
1.200161976E1,-2.044780970E0,1.423167467E0,-2.126135349E0
1.201161866E1,-1.882294059E0,1.455852985E0,-1.752877712E0
1.202161749E1,-1.698452950E0,1.444478750E0,-1.343438148E0
1.203161635E1,-1.593235254E0,1.311399221E0,-8.390474319E-1
1.204161522E1,-1.583895445E0,1.160648108E0,-4.631481171E-1
1.205161402E1,-1.562953830E0,1.016792536E0,-9.431362152E-2
1.206161285E1,-1.589854479E0,8.760309219E-1,2.833328247E-1
1.207161169E1,-1.601540565E0,8.620586395E-1,5.383310318E-1
1.208161052E1,-1.607069612E0,8.697957993E-1,7.446336746E-1
1.209160942E1,-1.641287208E0,8.748190403E-1,9.493827820E-1
1.210160835E1,-1.543244123E0,8.213930130E-1,1.203703880E0
1.211160722E1,-1.425972939E0,7.725079060E-1,1.427281380E0
1.212160608E1,-1.194911718E0,5.990729332E-1,1.793811798E0
1.213160488E1,-1.074892759E0,5.001807213E-1,2.099419594E0
1.214160375E1,-1.056917191E0,4.613041878E-1,2.298500061E0
1.215160262E1,-1.046488047E0,4.188804626E-1,2.436739922E0
1.216160142E1,-1.042541742E0,3.952143192E-1,2.428672791E0
1.217160028E1,-1.100284934E0,3.556416035E-1,2.281942368E0
1.218159918E1,-1.220317483E0,4.213938713E-1,1.963435173E0
1.219159798E1,-1.232606649E0,4.949228764E-1,1.600013733E0
1.220159685E1,-1.162767649E0,5.072531700E-1,1.214603424E0
1.221159571E1,-1.090489626E0,4.378039837E-1,8.080682755E-1
1.222159458E1,-1.080911398E0,3.395860195E-1,5.227661133E-1
1.223159341E1,-1.096338272E0,1.800189018E-1,2.791519165E-1
1.224159221E1,-1.126173735E0,-7.919597626E-2,7.240200043E-2
1.225159101E1,-1.186869860E0,-3.578751087E-1,-1.658153534E-2
1.226158975E1,-1.298750401E0,-6.119143963E-1,-4.581642151E-2
1.227158841E1,-1.460643768E0,-8.496775627E-1,-5.797481537E-2
1.228158715E1,-1.627795458E0,-1.026888847E0,-7.538986206E-2
1.229158588E1,-1.699001074E0,-1.120857716E0,-1.755046844E-1
1.230158454E1,-1.668892264E0,-1.166854620E0,-2.664260864E-1
1.231158328E1,-1.573287725E0,-1.170776844E0,-2.966222763E-1
1.232158201E1,-1.416384220E0,-1.188962698E0,-3.083639145E-1
1.233158074E1,-1.156286716E0,-1.135563850E0,-3.769664764E-1
1.234157948E1,-1.025595665E0,-1.014237642E0,-5.331182480E-1
1.235157824E1,-9.725294709E-1,-8.039026260E-1,-6.500177383E-1
1.236157704E1,-1.002743959E0,-5.638518333E-1,-8.875408173E-1
1.237157584E1,-1.066465378E0,-4.133334160E-1,-1.144645214E0
1.238157458E1,-1.050165415E0,-2.994747162E-1,-1.517221451E0
1.239157331E1,-1.021940589E0,-1.732499599E-1,-1.790038109E0
1.240157201E1,-1.029528260E0,-8.413147926E-2,-2.009620667E0
1.241157071E1,-1.020282269E0,-5.695104599E-2,-1.923687935E0
1.242156947E1,-9.661275744E-1,-1.219396591E-1,-1.595677376E0
1.243156824E1,-8.773952723E-1,-3.209333420E-1,-1.280066490E0
1.244156694E1,-8.883844018E-1,-4.426622391E-1,-1.074582100E0
1.245156571E1,-9.025040865E-1,-5.482079983E-1,-1.018393517E0
1.246156447E1,-9.589310884E-1,-6.243510246E-1,-1.177129745E0
1.247156324E1,-1.021560669E0,-6.652438641E-1,-1.402872562E0
1.248156197E1,-1.100247264E0,-6.204776764E-1,-1.588985443E0
1.249156074E1,-1.203621984E0,-5.452258587E-1,-1.767656803E0
1.250155950E1,-1.262447357E0,-4.679906368E-1,-1.875354767E0
1.251155827E1,-1.337439895E0,-4.166736603E-1,-1.977144718E0
1.252155697E1,-1.473219395E0,-3.894386292E-1,-2.028316021E0
1.253155574E1,-1.442834854E0,-4.253334999E-1,-2.001998901E0
1.254155450E1,-1.399516344E0,-3.639802933E-1,-1.918562889E0
1.255155323E1,-1.324745655E0,-2.173256874E-1,-1.808016300E0
1.256155200E1,-1.292525530E0,3.383803368E-2,-1.700579643E0
1.257155077E1,-1.268300295E0,3.008861542E-1,-1.634644508E0
1.258154953E1,-1.276676059E0,6.427633762E-1,-1.565435886E0
1.259154830E1,-1.244990110E0,9.246041775E-1,-1.624001503E0
1.260154706E1,-1.316880107E0,1.186533689E0,-1.505623341E0
1.261154583E1,-1.306853771E0,1.274802208E0,-1.001188278E0
1.262154460E1,-1.188896418E0,1.126163006E0,-5.012788773E-1
1.263154330E1,-1.111087918E0,9.260480404E-1,3.982257843E-2
1.264154206E1,-1.110904813E0,7.999758720E-1,5.973815918E-1
1.265154080E1,-1.108123302E0,8.054594994E-1,1.254631042E0
1.266153946E1,-1.131103873E0,9.100646973E-1,1.833261490E0
1.267153816E1,-1.098257542E0,1.014907598E0,2.236119270E0
1.268153689E1,-1.054289818E0,1.091373205E0,2.553302765E0
1.269153556E1,-1.020007372E0,1.051807165E0,2.748404503E0
1.270153429E1,-1.023678064E0,9.800889492E-1,2.859608650E0
1.271153303E1,-1.175571322E0,9.219932556E-1,2.851677895E0
1.272153176E1,-1.395699024E0,1.027079582E0,2.494371414E0
1.273153049E1,-1.658982873E0,1.196366072E0,1.808743477E0
1.274152922E1,-1.839759827E0,1.207149982E0,1.020725250E0
1.275152796E1,-1.944700480E0,1.358040333E0,3.172788620E-1
1.276152672E1,-1.844398856E0,1.467295885E0,-2.364025116E-1
1.277152542E1,-1.491208673E0,1.470110416E0,-6.454992294E-1
1.278152419E1,-1.095414281E0,1.314420700E0,-7.342185974E-1
1.279152296E1,-7.645226717E-1,9.929790497E-1,-6.449060440E-1
1.280152166E1,-5.853878260E-1,6.265513897E-1,-3.325452805E-1
1.281152042E1,-5.755096674E-1,3.871276379E-1,1.101493835E-2
1.282151919E1,-5.236362219E-1,1.920967102E-1,1.415891647E-1
1.283151795E1,-1.430241019E-1,-2.464222908E-1,7.808971405E-2
1.284151672E1,3.883516788E-1,-8.969430923E-1,1.014966965E-1
1.285151545E1,7.056072950E-1,-1.360145092E0,1.329927444E-1
1.286151422E1,8.286049366E-1,-1.737485170E0,3.811588287E-1
1.287151298E1,7.282014489E-1,-1.943399787E0,5.693302155E-1
1.288151169E1,5.545568466E-1,-1.972671747E0,6.127872467E-1
1.289151045E1,3.353684247E-1,-1.869953513E0,4.123620987E-1
1.290150922E1,1.361637712E-1,-1.702263832E0,-6.366825104E-2
1.291150792E1,2.851465344E-2,-1.608043909E0,-4.831981659E-1
1.292150668E1,-1.142737865E-1,-1.480700016E0,-7.514972687E-1
1.293150545E1,-1.996257752E-1,-1.279313087E0,-1.065649986E0
1.294150422E1,-4.164096117E-1,-9.934988022E-1,-1.358332634E0
1.295150298E1,-6.153832674E-1,-6.818032265E-1,-1.688543320E0
1.296150175E1,-7.574179173E-1,-4.462163448E-1,-2.022836208E0
1.297150055E1,-7.989116907E-1,-3.768839836E-1,-2.334033489E0
1.298149935E1,-6.923604608E-1,-3.627204895E-1,-2.484913349E0
1.299149825E1,-6.824717522E-1,-3.551137447E-1,-2.509232998E0
1.300149715E1,-7.178432941E-1,-3.399155140E-1,-2.385661602E0
1.301149611E1,-7.346543074E-1,-3.790516853E-1,-2.102491379E0
1.302149505E1,-7.558996677E-1,-4.301555157E-1,-1.791036129E0
1.303149405E1,-8.457399607E-1,-4.255893230E-1,-1.670913219E0
1.304149308E1,-9.868068695E-1,-4.293906689E-1,-1.515012264E0
1.305149208E1,-1.115311503E0,-4.704322815E-1,-1.333929062E0
1.306149111E1,-1.129760981E0,-5.938510895E-1,-1.211858273E0
1.307149025E1,-1.088490963E0,-6.233999729E-1,-1.104318142E0
1.308148935E1,-1.091199517E0,-5.552020073E-1,-9.751043320E-1
1.309148841E1,-1.117712498E0,-4.853942394E-1,-8.194007874E-1
1.310148748E1,-1.092347145E0,-4.288380146E-1,-7.137279510E-1
1.311148654E1,-1.057802081E0,-3.306255341E-1,-6.485500336E-1
1.312148564E1,-1.120868683E0,-2.167866230E-1,-6.576118469E-1
1.313148468E1,-1.172317505E0,-1.035022736E-1,-6.463737488E-1
1.314148378E1,-1.195031404E0,3.669333458E-2,-6.392421722E-1
1.315148288E1,-1.131934404E0,1.625981331E-1,-6.240453720E-1
1.316148194E1,-1.042645693E0,2.555654049E-1,-6.752128601E-1
1.317148104E1,-1.013567805E0,3.371973038E-1,-7.185316086E-1
1.318148014E1,-1.081709266E0,5.436565876E-1,-7.251319885E-1
1.319147924E1,-1.158146977E0,7.101078033E-1,-6.855401993E-1
1.320147834E1,-1.261042476E0,8.438513279E-1,-6.069698334E-1
1.321147744E1,-1.388713360E0,9.490845203E-1,-5.753679276E-1
1.322147654E1,-1.537408233E0,1.057249546E0,-5.046491623E-1
1.323147564E1,-1.593536019E0,1.168770552E0,-4.188880920E-1
1.324147468E1,-1.570811152E0,1.222398758E0,-2.442197800E-1
1.325147378E1,-1.439911246E0,1.184079409E0,-2.206039429E-2
1.326147288E1,-1.331973553E0,1.079461813E0,2.780542374E-1
1.327147191E1,-1.255109549E0,9.267621040E-1,6.531543732E-1
1.328147097E1,-1.283685207E0,7.741227150E-1,1.021710396E0
1.329146994E1,-1.381942034E0,6.755011082E-1,1.381645203E0
1.330146884E1,-1.604264140E0,7.582819462E-1,1.565991402E0
1.331146774E1,-1.727420926E0,9.433565140E-1,1.439112663E0
1.332146661E1,-1.855558753E0,1.193522453E0,1.274561882E0
1.333146547E1,-1.922793269E0,1.335277081E0,8.539733887E-1
1.334146430E1,-1.870094061E0,1.409898043E0,4.682846069E-1
1.335146310E1,-1.709143996E0,1.365385294E0,9.137725830E-2
1.336146190E1,-1.578043938E0,1.208625793E0,-7.833003998E-2
1.337146061E1,-1.689751148E0,9.113595486E-1,-8.113098145E-2
1.338145927E1,-1.815901637E0,4.524555206E-1,1.895179749E-1
1.339145804E1,-1.847244263E0,-1.398587227E-1,6.140575409E-1
1.340145680E1,-1.838018298E0,-8.257281780E-1,1.038621902E0
1.341145554E1,-1.786455512E0,-1.303231716E0,1.079498291E0
1.342145430E1,-1.811936855E0,-1.644436836E0,1.124517441E0
1.343145307E1,-1.862701416E0,-1.753036380E0,9.721851349E-1
1.344145183E1,-1.896122932E0,-1.621178508E0,6.459550858E-1
1.345145060E1,-1.899276614E0,-1.359073639E0,2.072944641E-1
1.346144933E1,-1.754424453E0,-1.120307922E0,-8.173274994E-2
1.347144810E1,-1.553986311E0,-9.946846962E-1,-3.555078506E-1
1.348144686E1,-1.182738781E0,-9.531559944E-1,-4.385814667E-1
1.349144557E1,-8.443390131E-1,-9.076244831E-1,-3.995227814E-1
1.350144433E1,-7.833613157E-1,-7.436835766E-1,-3.710813522E-1
1.351144310E1,-7.859092951E-1,-5.551888943E-1,-4.924011230E-1
1.352144183E1,-7.655857801E-1,-3.605117798E-1,-7.498722076E-1
1.353144060E1,-7.174419165E-1,-2.869579792E-1,-1.054730415E0
1.354143936E1,-6.700107455E-1,-3.023002148E-1,-1.383349419E0
1.355143806E1,-7.047372460E-1,-2.800533772E-1,-1.657318115E0
1.356143683E1,-7.133129835E-1,-2.240438461E-1,-1.807289600E0
1.357143559E1,-7.389373779E-1,-9.461951256E-2,-1.838387966E0
1.358143436E1,-7.905895710E-1,1.474142075E-3,-1.772393703E0
1.359143313E1,-7.029811144E-1,-2.236199379E-2,-1.620205402E0
1.360143193E1,-5.915107727E-1,-1.387932301E-1,-1.409965515E0
1.361143069E1,-5.832935572E-1,-2.867279053E-1,-1.340228558E0
1.362142946E1,-6.341244578E-1,-4.113872051E-1,-1.328650951E0
1.363142816E1,-6.995828152E-1,-4.577972889E-1,-1.356102943E0
1.364142692E1,-7.584926486E-1,-4.787559509E-1,-1.412903309E0
1.365142569E1,-8.467653990E-1,-4.626030922E-1,-1.446229935E0
1.366142439E1,-1.012900114E0,-3.729960918E-1,-1.420236111E0
1.367142316E1,-1.097019434E0,-2.967844009E-1,-1.427999973E0
1.368142192E1,-1.136432290E0,-2.502410412E-1,-1.396960735E0
1.369142069E1,-1.063478947E0,-1.653189659E-1,-1.407989502E0
1.370141945E1,-9.654915929E-1,-1.193571091E-2,-1.386509895E0
1.371141819E1,-9.330038428E-1,1.833443642E-1,-1.339708328E0
1.372141692E1,-1.021665573E0,2.955496311E-1,-1.320134163E0
1.373141565E1,-1.118273258E0,3.887610435E-1,-1.207881927E0
1.374141432E1,-1.181805968E0,4.560229778E-1,-9.878158569E-1
1.375141305E1,-1.186140060E0,4.783024788E-1,-8.084764481E-1
1.376141179E1,-1.261015415E0,5.889990330E-1,-6.960935593E-1
1.377141045E1,-1.324202895E0,6.901221275E-1,-6.579360962E-1
1.378140918E1,-1.315925241E0,8.050940037E-1,-5.987815857E-1
1.379140792E1,-1.315716386E0,9.150710106E-1,-5.481443405E-1
1.380140658E1,-1.190145850E0,1.063958883E0,-3.896379471E-1
1.381140532E1,-1.011155844E0,1.209377527E0,-1.219034195E-1
1.382140405E1,-7.406388521E-1,1.335394859E0,2.228374481E-1
1.383140282E1,-4.931168854E-1,1.432276249E0,7.299385071E-1
1.384140158E1,-3.505293131E-1,1.317447186E0,1.152891159E0
1.385140035E1,-3.949903846E-1,1.059212923E0,1.515913963E0
1.386139911E1,-6.861849427E-1,8.156886101E-1,1.879587173E0
1.387139788E1,-1.200042963E0,7.517848015E-1,2.259975433E0
1.388139658E1,-1.484389067E0,7.965006828E-1,2.304791451E0
1.389139535E1,-1.590127468E0,9.886958599E-1,2.336998940E0
1.390139408E1,-1.457068920E0,1.216071606E0,1.777309418E0
1.391139278E1,-1.349993944E0,1.330070019E0,1.234948158E0
1.392139154E1,-9.594449401E-1,1.212725163E0,8.488006592E-1
1.393139031E1,-6.729363203E-1,9.419319630E-1,7.256364822E-1
1.394138908E1,-5.161406398E-1,6.249589920E-1,7.789621353E-1
1.395138784E1,-5.202253461E-1,3.648815155E-1,8.564224243E-1
1.396138664E1,-6.041291952E-1,2.015500069E-1,9.447727203E-1
1.397138541E1,-6.830643415E-1,4.952025414E-2,9.229660034E-1
1.398138417E1,-7.342201471E-1,-6.744742393E-2,7.806634903E-1
1.399138287E1,-7.036423683E-1,-1.465857029E-1,6.000261307E-1
1.400138164E1,-4.780082107E-1,-3.354485035E-1,3.604125977E-1
1.401138041E1,-1.974761486E-1,-5.456788540E-1,2.993450165E-1
1.402137911E1,-4.828506708E-2,-7.150542736E-1,3.787546158E-1
1.403137787E1,-1.323604584E-2,-7.926189899E-1,4.578876495E-1
1.404137664E1,-2.392023802E-2,-9.056235552E-1,6.332035065E-1
1.405137534E1,-8.606028557E-2,-1.027938128E0,7.122411728E-1
1.406137410E1,-1.930524707E-1,-1.076347828E0,6.701364517E-1
1.407137290E1,-4.884155393E-1,-1.090901971E0,4.099712372E-1
1.408137167E1,-6.890770793E-1,-9.832434654E-1,1.057996750E-1
1.409137054E1,-7.582191229E-1,-8.781074286E-1,-1.708011627E-1
1.410136947E1,-9.011696577E-1,-7.460227013E-1,-5.035352707E-1
1.411136840E1,-1.074007988E0,-5.934646130E-1,-9.929218292E-1
1.412136737E1,-1.111667037E0,-4.391140938E-1,-1.454088211E0
1.413136630E1,-1.037240386E0,-2.921066284E-1,-1.771868229E0
1.414136530E1,-8.359810710E-1,-2.748818398E-1,-1.951564312E0
1.415136437E1,-6.589010954E-1,-4.217054844E-1,-2.038093567E0
1.416136337E1,-5.773879290E-1,-5.350601673E-1,-1.958901882E0
1.417136243E1,-6.076842546E-1,-6.064760685E-1,-1.860981464E0
1.418136150E1,-6.809883118E-1,-5.928065777E-1,-1.716177464E0
1.419136056E1,-7.656449080E-1,-5.056245327E-1,-1.700337887E0
1.420135963E1,-9.189440608E-1,-4.558355808E-1,-1.723835945E0
1.421135870E1,-1.080832481E0,-5.222451687E-1,-1.817876816E0
1.422135776E1,-1.259539843E0,-5.183584690E-1,-1.892642021E0
1.423135683E1,-1.418249369E0,-4.362189770E-1,-1.794009686E0
1.424135583E1,-1.475938082E0,-3.824248314E-1,-1.699919701E0
1.425135490E1,-1.506141663E0,-2.952554226E-1,-1.633227348E0
1.426135393E1,-1.485246420E0,-2.869913578E-1,-1.475895882E0
1.427135293E1,-1.473056793E0,-1.930832863E-1,-1.215596199E0
1.428135199E1,-1.555385828E0,-2.026152611E-1,-8.908472061E-1
1.429135106E1,-1.723584890E0,-2.574386597E-1,-5.179052353E-1
1.430135006E1,-1.725338936E0,-3.584856987E-1,-2.345237732E-1
1.431134913E1,-1.735419035E0,-3.253772259E-1,-2.174148560E-1
1.432134819E1,-1.747570276E0,-1.452345848E-1,-2.058897018E-1
1.433134726E1,-1.579646349E0,1.892762184E-1,-4.521007538E-1
1.434134632E1,-1.292804480E0,4.246530533E-1,-5.841302872E-1
1.435134539E1,-1.095964670E0,6.947667599E-1,-6.995201111E-1
1.436134446E1,-9.229303598E-1,9.221093655E-1,-7.977170944E-1
1.437134349E1,-8.676255941E-1,1.130711317E0,-8.462181091E-1
1.438134249E1,-8.543896675E-1,1.262170792E0,-8.362646103E-1
1.439134146E1,-9.169716835E-1,1.361162901E0,-8.427867889E-1
1.440134036E1,-1.128254414E0,1.404109240E0,-5.752773285E-1
1.441133919E1,-1.104323626E0,1.267708778E0,-3.463964462E-1
1.442133802E1,-1.140971661E0,1.124730110E0,2.888965607E-2
1.443133682E1,-1.187494159E0,1.055951357E0,2.308893204E-1
1.444133562E1,-1.229434967E0,1.037306070E0,3.324060440E-1
1.445133435E1,-1.301784277E0,1.021186590E0,5.968294144E-1
1.446133309E1,-1.267870784E0,9.762744904E-1,1.017030716E0
1.447133182E1,-1.279184699E0,9.436974525E-1,1.248851776E0
1.448133055E1,-1.369437695E0,9.549016953E-1,1.256796837E0
1.449132922E1,-1.468045712E0,1.140375137E0,1.007727623E0
1.450132795E1,-1.441887856E0,1.356379509E0,6.111898422E-1
1.451132668E1,-1.258679152E0,1.534548044E0,3.199300766E-1
1.452132535E1,-1.051906943E0,1.525718451E0,2.105474472E-1
1.453132408E1,-8.956151009E-1,1.448727369E0,3.411464691E-1
1.454132285E1,-9.041903019E-1,1.262208700E0,5.191230774E-1
1.455132155E1,-9.779053330E-1,7.880821228E-1,7.853631973E-1
1.456132032E1,-1.109996438E0,2.657251358E-1,7.397155762E-1
1.457131908E1,-1.200728893E0,-2.418947220E-1,6.401462555E-1
1.458131785E1,-1.289775848E0,-6.124341488E-1,5.294218063E-1
1.459131661E1,-1.330224991E0,-8.200221062E-1,4.257001877E-1
1.460131538E1,-1.415943384E0,-8.791389465E-1,4.378166199E-1
1.461131415E1,-1.371957660E0,-9.539134502E-1,3.947887421E-1
1.462131291E1,-1.267337918E0,-1.094487906E0,4.832553864E-1
1.463131161E1,-1.184727430E0,-1.218769789E0,5.280551910E-1
1.464131038E1,-1.151561022E0,-1.293921947E0,5.005531311E-1
1.465130914E1,-1.130863070E0,-1.371311069E0,3.656654358E-1
1.466130784E1,-1.218783140E0,-1.362354517E0,1.558723450E-1
1.467130664E1,-1.346958518E0,-1.244010210E0,-1.462936401E-1
1.468130541E1,-1.463405013E0,-9.728565216E-1,-5.585584641E-1
1.469130418E1,-1.415397763E0,-7.567744255E-1,-9.478845596E-1
1.470130294E1,-1.246458292E0,-6.236240864E-1,-1.195688248E0
1.471130171E1,-1.067090392E0,-4.713990688E-1,-1.346568584E0
1.472130047E1,-8.681904078E-1,-4.577615261E-1,-1.264093399E0
1.473129924E1,-6.944440603E-1,-5.152046680E-1,-1.143903732E0
1.474129794E1,-6.395471692E-1,-5.411634445E-1,-1.116713524E0
1.475129671E1,-6.783149242E-1,-5.198621750E-1,-1.128597260E0
1.476129547E1,-7.120214701E-1,-4.841973782E-1,-1.217091084E0
1.477129417E1,-7.617553473E-1,-3.953247070E-1,-1.321657181E0
1.478129294E1,-7.789705396E-1,-3.369381428E-1,-1.461526871E0
1.479129170E1,-7.942937613E-1,-2.557229996E-1,-1.656119823E0
1.480129040E1,-8.742289543E-1,-1.303009987E-1,-1.800948620E0
1.481128917E1,-8.873764277E-1,-5.984902382E-2,-1.865379333E0
1.482128794E1,-9.451992512E-1,-7.768154144E-3,-1.911844254E0
1.483128670E1,-9.297085404E-1,-3.901886940E-2,-1.846854687E0
1.484128544E1,-8.616942167E-1,-6.142210960E-2,-1.760864258E0
1.485128420E1,-7.723892927E-1,-4.285860062E-2,-1.739539146E0
1.486128293E1,-6.858457327E-1,-1.499509811E-2,-1.660567284E0
1.487128167E1,-5.686718822E-1,9.855985641E-3,-1.571713448E0
1.488128033E1,-5.732881427E-1,9.081912041E-2,-1.508659363E0
1.489127907E1,-7.005760670E-1,2.689280510E-1,-1.452425003E0
1.490127780E1,-8.474625349E-1,4.196100235E-1,-1.412562370E0
1.491127646E1,-9.370273352E-1,5.728552341E-1,-1.381421566E0
1.492127520E1,-1.056468248E0,7.301867008E-1,-1.363408089E0
1.493127393E1,-1.171094179E0,9.063649178E-1,-1.322745323E0
1.494127266E1,-1.166309834E0,1.103249311E0,-1.149903297E0
1.495127143E1,-1.124356866E0,1.245795012E0,-8.765525818E-1
1.496127020E1,-1.034061670E0,1.342418671E0,-5.270261765E-1
1.497126893E1,-9.212023616E-1,1.410073042E0,-1.828317642E-1
1.498126770E1,-8.009400964E-1,1.404063940E0,1.461725235E-1
1.499126640E1,-6.364144683E-1,1.275212765E0,5.577907562E-1
1.500126516E1,-4.848145247E-1,1.114896059E0,9.274358749E-1
1.501126393E1,-5.032219291E-1,1.011716127E0,1.262212753E0
1.502126263E1,-6.423848867E-1,8.536303043E-1,1.607321739E0
1.503126139E1,-8.678321838E-1,6.724231243E-1,1.817148209E0
1.504126016E1,-1.148309708E0,5.280222893E-1,1.844433784E0
1.505125886E1,-1.381298900E0,3.521368504E-1,1.613624573E0
1.506125763E1,-1.481244087E0,3.345203400E-1,1.180471420E0
1.507125639E1,-1.483379841E0,4.897053242E-1,7.629671097E-1
1.508125512E1,-1.258536458E0,6.977283955E-1,4.588003159E-1
1.509125386E1,-9.075063467E-1,7.598507404E-1,4.134798050E-1
1.510125259E1,-5.572154522E-1,6.667098999E-1,4.473581314E-1
1.511125132E1,-3.168968260E-1,5.472476482E-1,5.748701096E-1
1.512125006E1,-2.938579321E-1,5.075824261E-1,5.737180710E-1
1.513124872E1,-3.041802049E-1,5.159802437E-1,4.590845108E-1
1.514124749E1,-2.060351670E-1,4.456310272E-1,2.939805984E-1
1.515124622E1,5.124241114E-3,2.502157688E-1,9.000682831E-2
1.516124495E1,2.603389919E-1,-6.080508232E-2,-5.297565460E-2
1.517124375E1,6.238491535E-1,-4.179301262E-1,-8.611869812E-2
1.518124259E1,8.809441328E-1,-7.506539822E-1,1.333141327E-2
1.519124142E1,9.267713428E-1,-9.606004953E-1,3.474111557E-1
1.520124032E1,7.690767050E-1,-1.030475855E0,6.811761856E-1
1.521123922E1,4.802664518E-1,-1.256322503E0,1.058759689E0
1.522123812E1,1.999429464E-1,-1.533934593E0,1.210484505E0
1.523123702E1,-1.539157927E-1,-1.737830400E0,1.120477676E0
1.524123585E1,-5.157121420E-1,-1.836967707E0,8.307313919E-1
1.525123472E1,-6.160496473E-1,-1.848549366E0,3.855915070E-1
1.526123359E1,-4.984204173E-1,-1.555549026E0,-8.425617218E-2
1.527123239E1,-2.978241444E-2,-1.037528396E0,-6.525707245E-1
1.528123125E1,3.600193560E-1,-6.933925152E-1,-1.005547523E0
1.529123012E1,6.913014054E-1,-4.033572674E-1,-1.291373253E0
1.530122892E1,8.417474031E-1,-2.177846432E-1,-1.488267422E0
1.531122778E1,7.631301284E-1,-8.973312378E-2,-1.579928398E0
1.532122665E1,5.354267359E-1,-9.225201607E-2,-1.671344757E0
1.533122552E1,2.722846270E-1,-1.629321575E-1,-1.737923145E0
1.534122438E1,6.027622893E-2,-2.852869034E-1,-1.786119938E0
1.535122325E1,-9.315499663E-2,-5.054132938E-1,-1.836677074E0
1.536122211E1,-3.301014304E-1,-6.907658577E-1,-1.994568825E0
1.537122098E1,-5.903922319E-1,-7.929570675E-1,-2.025365829E0
1.538121981E1,-7.664920092E-1,-8.550449610E-1,-1.941138268E0
1.539121871E1,-8.089649677E-1,-8.304066658E-1,-1.794276237E0
1.540121761E1,-7.719879150E-1,-5.806818008E-1,-1.469704151E0
1.541121644E1,-6.905393004E-1,-3.272402287E-1,-1.180121422E0
1.542121534E1,-6.180003881E-1,-6.879281998E-2,-1.095096588E0
1.543121425E1,-6.512624025E-1,2.606902122E-1,-1.080895424E0
1.544121311E1,-7.411164045E-1,4.014790058E-1,-1.085213661E0
1.545121198E1,-8.393195868E-1,4.318232536E-1,-1.058262825E0
1.546121081E1,-9.136756063E-1,3.829472065E-1,-9.282703400E-1
1.547120964E1,-1.016728282E0,4.519462585E-1,-6.732177734E-1
1.548120844E1,-1.077054381E0,5.125310421E-1,-5.008678436E-1
1.549120718E1,-1.159809470E0,6.173973083E-1,-6.211767197E-1
1.550120591E1,-1.190962315E0,7.193021774E-1,-7.860040665E-1
1.551120464E1,-1.137417912E0,8.159668446E-1,-8.531847000E-1
1.552120331E1,-9.694628119E-1,9.011206627E-1,-8.364696503E-1
1.553120204E1,-8.366857171E-1,1.045676708E0,-5.639724731E-1
1.554120077E1,-6.638612151E-1,1.151082039E0,-2.702436447E-1
1.555119944E1,-5.491145253E-1,1.287020206E0,4.059886932E-2
1.556119817E1,-4.994578362E-1,1.330003023E0,2.979059219E-1
1.557119694E1,-4.676505327E-1,1.294564724E0,5.239229202E-1
1.558119574E1,-5.754809380E-1,1.106734037E0,8.078994751E-1
1.559119450E1,-8.641099334E-1,9.782547951E-1,1.023355484E0
1.560119327E1,-1.102271914E0,8.734376431E-1,1.108690262E0
1.561119204E1,-1.292214632E0,9.989252090E-1,1.007658958E0
1.562119080E1,-1.312950015E0,1.228945017E0,7.414922714E-1
1.563118950E1,-1.071575999E0,1.404251099E0,4.887351990E-1
1.564118827E1,-8.102578521E-1,1.548934937E0,4.483203888E-1
1.565118704E1,-7.914495468E-1,1.612404346E0,7.019472122E-1
1.566118574E1,-9.811429381E-1,1.546096087E0,9.210100174E-1
1.567118450E1,-1.204040051E0,1.249510050E0,1.016820908E0
1.568118327E1,-1.379772544E0,7.844827175E-1,9.399452209E-1
1.569118203E1,-1.612942219E0,2.594587803E-1,9.039964676E-1
1.570118080E1,-1.969733834E0,-1.713161469E-1,7.801265717E-1
1.571117956E1,-2.211597681E0,-5.553359985E-1,4.284343719E-1
1.572117833E1,-2.320753098E0,-7.980067730E-1,2.539939880E-1
1.573117710E1,-2.267136335E0,-9.667657614E-1,1.612892151E-1
1.574117580E1,-2.106874704E0,-9.131823778E-1,2.899799347E-1
1.575117456E1,-1.944191217E0,-7.720866203E-1,4.853696823E-1
1.576117333E1,-1.503562689E0,-7.003593445E-1,7.509050369E-1
1.577117203E1,-1.247427464E0,-5.988978148E-1,9.734296799E-1
1.578117080E1,-1.056376696E0,-5.870517492E-1,1.100083351E0
1.579116956E1,-9.820826054E-1,-6.289989948E-1,1.047013283E0
1.580116826E1,-1.080960751E0,-7.248806953E-1,6.655721664E-1
1.581116703E1,-1.322941422E0,-8.074885607E-1,1.266469955E-1
1.582116579E1,-1.630925775E0,-7.800195217E-1,-3.487539291E-1
1.583116456E1,-1.784521341E0,-6.609690189E-1,-8.005762100E-1
1.584116332E1,-1.763439655E0,-5.661630630E-1,-1.218028069E0
1.585116209E1,-1.710021377E0,-4.256274700E-1,-1.614034176E0
1.586116086E1,-1.483736038E0,-2.602703571E-1,-1.865720272E0
1.587115959E1,-1.270153522E0,-1.129267216E-1,-1.836616039E0
1.588115822E1,-9.951022863E-1,-1.096389294E-1,-1.603541851E0
1.589115696E1,-7.767801285E-1,-2.649102211E-1,-1.230320930E0
1.590115569E1,-7.238305807E-1,-3.554906845E-1,-9.495782852E-1
1.591115436E1,-7.844532132E-1,-4.773111343E-1,-8.364543915E-1
1.592115309E1,-9.265248775E-1,-6.302661896E-1,-8.584213257E-1
1.593115182E1,-1.091704249E0,-7.101516724E-1,-1.089397430E0
1.594115055E1,-1.250784636E0,-6.368622780E-1,-1.374111652E0
1.595114929E1,-1.333272934E0,-5.219709873E-1,-1.675330639E0
1.596114802E1,-1.365701079E0,-3.714969158E-1,-1.907928944E0
1.597114675E1,-1.438600063E0,-2.540349960E-1,-2.015439034E0
1.598114552E1,-1.478270769E0,-1.966714859E-1,-1.995901585E0
1.599114422E1,-1.449455976E0,-1.512475014E-1,-1.881997585E0
1.600114298E1,-1.351211190E0,-9.427714348E-2,-1.746907234E0
1.601114175E1,-1.250005007E0,2.835011482E-2,-1.620696545E0
1.602114045E1,-1.195248961E0,1.141400337E-1,-1.421375275E0
1.603113925E1,-1.117753983E0,1.883320808E-1,-1.316265106E0
1.604113802E1,-1.025696993E0,2.812941074E-1,-1.185499191E0
1.605113672E1,-1.064310789E0,3.403842449E-1,-1.110535622E0
1.606113548E1,-1.209177017E0,3.768315315E-1,-1.000909805E0
1.607113425E1,-1.328592420E0,3.353896141E-1,-8.780612946E-1
1.608113298E1,-1.425502181E0,2.699778080E-1,-7.462911606E-1
1.609113172E1,-1.485592127E0,3.438503742E-1,-6.247625351E-1
1.610113045E1,-1.481767178E0,4.124984741E-1,-3.629331589E-1
1.611112918E1,-1.246551037E0,5.905385017E-1,-1.089334488E-1
1.612112798E1,-1.083288789E0,8.866026402E-1,1.295518875E-1
1.613112668E1,-8.920482397E-1,1.196639299E0,3.008928299E-1
1.614112545E1,-6.605506539E-1,1.495234728E0,4.706344604E-1
1.615112421E1,-3.817951977E-1,1.529364109E0,7.269678116E-1
1.616112291E1,-1.310856938E-1,1.477570057E0,9.095888138E-1
1.617112168E1,-1.938865483E-1,1.366415501E0,1.274526596E0
1.618112044E1,-5.442286730E-1,1.329319000E0,1.520085335E0
1.619111921E1,-9.533172846E-1,1.324059486E0,1.629652977E0
1.620111798E1,-1.119981170E0,1.170993090E0,1.443434715E0
1.621111678E1,-1.070480108E0,8.103954792E-1,1.158242226E0
1.622111558E1,-9.370975494E-1,5.303425789E-1,8.532409668E-1
1.623111448E1,-8.138597012E-1,4.208998680E-1,6.145372391E-1
1.624111338E1,-4.343196154E-1,3.517112732E-1,5.976114273E-1
1.625111234E1,-3.887373209E-2,2.783985138E-1,7.161579132E-1
1.626111134E1,2.104063034E-1,1.900837421E-1,8.772172928E-1
1.627111031E1,2.661321759E-1,1.945426464E-1,9.854602814E-1
1.628110931E1,3.308122158E-1,1.471540928E-1,9.643249512E-1
1.629110838E1,4.960134029E-1,-7.608389854E-2,9.834356308E-1
1.630110738E1,5.370827913E-1,-3.111128807E-1,9.871234894E-1
1.631110644E1,4.287796021E-1,-6.101291180E-1,1.030042648E0
1.632110551E1,2.178198099E-1,-8.531448841E-1,1.042415619E0
1.633110454E1,-7.462322712E-3,-1.010382175E0,1.024366379E0
1.634110361E1,-1.634660363E-1,-1.071174622E0,9.485626221E-1
1.635110267E1,-2.790043354E-1,-1.106793642E0,8.236951828E-1
1.636110174E1,-4.036284685E-1,-1.113158822E0,5.535001755E-1
1.637110080E1,-5.078125596E-1,-1.005814552E0,2.968816757E-1
1.638109984E1,-6.125956178E-1,-8.598690033E-1,-4.867362976E-2
1.639109894E1,-7.282849550E-1,-6.133589745E-1,-3.793468475E-1
1.640109804E1,-8.257293701E-1,-4.013004303E-1,-7.200689316E-1
1.641109707E1,-8.635660410E-1,-3.142185211E-1,-1.109947205E0
1.642109610E1,-8.136414289E-1,-2.790811062E-1,-1.561923027E0
1.643109517E1,-6.985704899E-1,-2.824833393E-1,-1.958163738E0
1.644109424E1,-5.310773253E-1,-4.002406597E-1,-2.286117554E0
1.645109330E1,-3.770600259E-1,-4.878664017E-1,-2.483802319E0
1.646109237E1,-3.223950267E-1,-5.550746918E-1,-2.451621056E0
1.647109143E1,-4.343286753E-1,-5.544548035E-1,-2.257385731E0
1.648109050E1,-4.993948936E-1,-7.383506298E-1,-1.850533962E0
1.649108950E1,-5.681207180E-1,-8.596324921E-1,-1.613626003E0
1.650108856E1,-6.885771155E-1,-8.035597801E-1,-1.561126709E0
1.651108760E1,-8.305661678E-1,-6.923012733E-1,-1.598132610E0
1.652108656E1,-8.597653508E-1,-5.353138447E-1,-1.750226498E0
1.653108550E1,-8.578131795E-1,-3.999848366E-1,-1.859274387E0
1.654108436E1,-7.818569541E-1,-2.708435059E-1,-1.959119797E0
1.655108316E1,-6.412177682E-1,-8.618307114E-2,-1.973686218E0
1.656108200E1,-4.544649124E-1,6.374716759E-2,-1.868004799E0
1.657108080E1,-3.605913818E-1,2.425184250E-1,-1.738254070E0
1.658107960E1,-3.962599039E-1,3.854250908E-1,-1.570838451E0
1.659107833E1,-4.529623091E-1,4.431474209E-1,-1.354145050E0
1.660107706E1,-4.594345689E-1,4.664888382E-1,-1.083607674E0
1.661107580E1,-4.948001206E-1,4.629747868E-1,-8.520441055E-1
1.662107453E1,-5.342668891E-1,5.156722069E-1,-7.662820816E-1
1.663107319E1,-6.269006729E-1,6.318397522E-1,-7.849569321E-1
1.664107193E1,-7.085316181E-1,7.204585075E-1,-8.769283295E-1
1.665107066E1,-7.545955181E-1,7.727234364E-1,-9.632921219E-1
1.666106933E1,-7.940506935E-1,8.656899929E-1,-1.034517288E0
1.667106809E1,-7.853783369E-1,1.024285078E0,-1.026144981E0
1.668106683E1,-7.483582497E-1,1.254653931E0,-9.289979935E-1
1.669106556E1,-6.674022675E-1,1.398512125E0,-6.910257339E-1
1.670106432E1,-6.132467985E-1,1.416373014E0,-2.862157822E-1
1.671106309E1,-5.517511964E-1,1.322165251E0,9.404945374E-2
1.672106186E1,-5.961914659E-1,1.179514647E0,4.021968842E-1
1.673106062E1,-6.564269662E-1,1.129210711E0,5.929803848E-1
1.674105932E1,-7.037382126E-1,1.107678175E0,7.170562744E-1
1.675105809E1,-9.588975906E-1,7.779748440E-1,1.873774529E0
1.676105689E1,-1.160471916E0,9.122850895E-1,1.992913246E0
1.677105559E1,-1.288400412E0,1.081553459E0,1.938851357E0
1.678105435E1,-1.327445269E0,1.171162128E0,1.627748489E0
1.679105312E1,-1.327046633E0,1.319653749E0,1.142672539E0
1.680105182E1,-1.138070583E0,1.417100430E0,7.039823532E-1
1.681105059E1,-8.593338728E-1,1.415519238E0,3.451042175E-1
1.682104935E1,-5.840829015E-1,1.268328428E0,2.003116608E-1
1.683104812E1,-5.928939581E-1,1.013673544E0,2.321367264E-1
1.684104688E1,-7.222735882E-1,6.301903725E-1,3.490610123E-1
1.685104565E1,-7.893451452E-1,1.543085575E-1,5.728912354E-1
1.686104442E1,-8.782308102E-1,-3.897154331E-1,7.633228302E-1
1.687104318E1,-9.632214308E-1,-8.201608658E-1,7.678146362E-1
1.688104188E1,-1.153038025E0,-1.130870342E0,6.789121628E-1
1.689104065E1,-1.310364485E0,-1.323942184E0,4.498872757E-1
1.690103941E1,-1.370653272E0,-1.394951344E0,2.619733810E-1
1.691103811E1,-1.376201749E0,-1.355511069E0,8.557415009E-2
1.692103688E1,-1.312691927E0,-1.213819385E0,-1.588001251E-1
1.693103565E1,-1.172130942E0,-1.089046717E0,-3.937797546E-1
1.694103441E1,-9.739800692E-1,-9.234966040E-1,-5.634450912E-1
1.695103318E1,-9.017904401E-1,-7.377364635E-1,-6.785449982E-1
1.696103194E1,-9.619442225E-1,-5.341260433E-1,-8.069076538E-1
1.697103068E1,-1.030315042E0,-3.665425777E-1,-8.938264847E-1
1.698102944E1,-1.022306681E0,-2.228956223E-1,-9.136753082E-1
1.699102814E1,-9.031475186E-1,-2.661840916E-1,-9.189128876E-1
1.700102688E1,-7.337659597E-1,-3.836290836E-1,-8.951206207E-1
1.701102561E1,-5.782728195E-1,-5.057823658E-1,-6.913051605E-1
1.702102428E1,-4.735175967E-1,-5.534236431E-1,-3.857784271E-1
1.703102301E1,-3.310916126E-1,-5.529291630E-1,-1.957569122E-1
1.704102174E1,-2.799956203E-1,-5.346364975E-1,-9.700489044E-2
1.705102041E1,-3.642663956E-1,-4.827528000E-1,-2.689504623E-1
1.706101911E1,-5.370391011E-1,-4.375817776E-1,-4.724292755E-1
1.707101784E1,-6.673949361E-1,-4.432520866E-1,-6.934309006E-1
1.708101657E1,-8.373565674E-1,-4.203813076E-1,-9.799680710E-1
1.709101527E1,-9.351347089E-1,-3.831272125E-1,-1.252980232E0
1.710101401E1,-9.876042008E-1,-2.495019436E-1,-1.522107124E0
1.711101274E1,-1.006595731E0,-1.005611420E-1,-1.737004280E0
1.712101154E1,-9.816135168E-1,-2.311110497E-2,-1.847051144E0
1.713101024E1,-9.964930415E-1,6.382131577E-2,-1.830507278E0
1.714100900E1,-9.973794222E-1,7.922410965E-2,-1.686780930E0
1.715100777E1,-9.568776488E-1,7.521629333E-2,-1.522850990E0
1.716100647E1,-9.312413931E-1,6.249451637E-2,-1.491039276E0
1.717100524E1,-9.899727702E-1,1.098785400E-1,-1.528368950E0
1.718100400E1,-1.016882658E0,2.089090347E-1,-1.628041267E0
1.719100280E1,-9.755085707E-1,3.367431164E-1,-1.723356247E0
1.720100157E1,-9.010186195E-1,5.098459721E-1,-1.793347836E0
1.721100037E1,-8.504850864E-1,6.454358101E-1,-1.762336254E0
1.722099914E1,-8.306092024E-1,8.032591343E-1,-1.645319462E0
1.723099790E1,-7.881535888E-1,9.539935589E-1,-1.368571281E0
1.724099660E1,-8.301746845E-1,1.123192072E0,-1.180884361E0
1.725099537E1,-8.922036290E-1,1.298372269E0,-1.022261620E0
1.726099413E1,-9.634628892E-1,1.443758965E0,-8.496608734E-1
1.727099283E1,-9.323263168E-1,1.595003843E0,-6.637067795E-1
1.728099160E1,-8.266066909E-1,1.519890070E0,-3.309936523E-1
1.729099037E1,-6.621192098E-1,1.411810637E0,-1.081914902E-1
1.730098910E1,-4.354501963E-1,1.108275414E0,3.423023224E-1
1.731098790E1,-4.089184403E-1,8.519775867E-1,1.039530754E0
1.732098673E1,-4.820336998E-1,6.310205460E-1,1.869368553E0
1.733098556E1,-6.391746998E-1,5.250279903E-1,2.400279999E0
1.734098446E1,-7.247356772E-1,4.940316677E-1,2.566779137E0
1.735098336E1,-7.807127237E-1,5.758280754E-1,2.283170700E0
1.736098226E1,-7.214130163E-1,6.985094547E-1,1.556461334E0
1.737098120E1,-6.120626926E-1,8.671495914E-1,1.016872406E0
1.738098003E1,-3.560396731E-1,9.532265663E-1,8.013935089E-1
1.739097896E1,-1.460529864E-2,9.263818264E-1,7.459535599E-1
1.740097786E1,2.729036808E-1,7.820911407E-1,7.793560028E-1
1.741097670E1,4.618379176E-1,6.105208397E-1,8.498239517E-1
1.742097553E1,6.015044451E-1,3.439033031E-1,8.575830460E-1
1.743097440E1,7.683777213E-1,6.516098976E-2,7.675018311E-1
1.744097326E1,1.001837730E0,-2.610580921E-1,7.284069061E-1
1.745097213E1,1.282577276E0,-5.248001814E-1,8.767795563E-1
1.746097099E1,1.106935024E0,-6.522730589E-1,8.725986481E-1
1.747096986E1,6.522388458E-1,-8.544225693E-1,8.503799438E-1
1.748096872E1,1.865862161E-1,-1.110602379E0,6.125192642E-1
1.749096749E1,-1.405694485E-1,-1.299793005E0,2.123985291E-1
1.750096636E1,-3.992987871E-1,-1.484236598E0,-3.375034332E-1
1.751096519E1,-4.787514210E-1,-1.634766221E0,-7.475137711E-1
1.752096399E1,-4.618476629E-1,-1.697836518E0,-1.349639893E0
1.753096286E1,-3.464770913E-1,-1.411494493E0,-1.506285667E0
1.754096172E1,-9.558866173E-2,-9.514614344E-1,-1.367713928E0
1.755096052E1,1.872484684E-1,-5.425508022E-1,-8.363466263E-1
1.756095939E1,3.897992074E-1,-4.441350698E-1,-2.999029160E-1
1.757095825E1,4.508229494E-1,-5.398235321E-1,5.311870575E-2
1.758095712E1,2.413675040E-1,-6.963061094E-1,1.208553314E-1
1.759095599E1,7.341779768E-3,-7.349017859E-1,8.593559265E-2
1.760095482E1,-1.860464364E-1,-7.048530579E-1,2.024402618E-1
1.761095365E1,-2.660455108E-1,-6.436064243E-1,-6.354942322E-1
1.762095245E1,-4.664131403E-1,-6.241980791E-1,-7.061319351E-1
1.763095118E1,-5.047658682E-1,-6.440837383E-1,-1.069594383E0
1.764094992E1,-7.788779140E-1,-6.232092381E-1,-1.103046417E0
1.765094865E1,-9.078880548E-1,-5.765577555E-1,-1.105096817E0
1.766094732E1,-9.488418698E-1,-5.943148136E-1,-1.185043335E0
1.767094602E1,-1.003941536E0,-3.718407154E-1,-1.128915787E0
1.768094475E1,-1.038253307E0,-1.336250305E-1,-1.417529106E0
1.769094348E1,-1.256986141E0,1.748147011E-1,-1.885457039E0
1.770094222E1,-1.557427406E0,4.745817184E-1,-2.195704937E0
1.771094095E1,-1.466548800E0,5.298531055E-1,-2.088866711E0
1.772093968E1,-1.305231571E0,4.487829208E-1,-1.833829403E0
1.773093845E1,-1.258123636E0,3.895373344E-1,-1.638727665E0
1.774093715E1,-1.238735437E0,4.012229443E-1,-1.558671951E0
1.775093591E1,-1.179326773E0,4.166243076E-1,-1.388257027E0
1.776093468E1,-1.126141787E0,3.792495728E-1,-1.219348907E0
1.777093338E1,-1.152871966E0,3.648562431E-1,-1.102075577E0
1.778093211E1,-1.165222645E0,3.977866173E-1,-9.456415176E-1
1.779093088E1,-1.186002016E0,4.362807274E-1,-7.289228439E-1
1.780092958E1,-1.189127207E0,4.547362328E-1,-6.119642258E-1
1.781092834E1,-1.248606682E0,5.523278713E-1,-4.459857941E-1
1.782092711E1,-1.297825336E0,6.475036144E-1,-2.596931458E-1
1.783092588E1,-1.342083216E0,6.589751244E-1,-1.003770828E-1
1.784092464E1,-1.375481606E0,6.729948521E-1,-4.164791107E-2
1.785092341E1,-1.322659492E0,6.828465462E-1,5.823898315E-2
1.786092218E1,-1.195961714E0,6.957252026E-1,1.513767242E-1
1.787092094E1,-1.055164576E0,6.390342712E-1,3.259305954E-1
1.788091964E1,-9.976620078E-1,6.473248005E-1,5.147438049E-1
1.789091841E1,-1.062692523E0,7.533750534E-1,7.347917557E-1
1.790091717E1,-1.123162866E0,9.101381302E-1,8.069210052E-1
1.791091587E1,-1.242379546E0,1.152730227E0,8.199329376E-1
1.792091464E1,-1.146757007E0,1.321286917E0,6.970634460E-1
1.793091341E1,-1.053053856E0,1.324599981E0,4.712638855E-1
1.794091217E1,-9.984921813E-1,1.231944084E0,3.041276932E-1
1.795091094E1,-9.704241753E-1,1.027786493E0,4.143657684E-1
1.796090970E1,-9.331875443E-1,6.919050217E-1,6.915540695E-1
1.797090847E1,-9.905486703E-1,3.862946033E-1,9.779815674E-1
1.798090724E1,-1.141341209E0,6.497240067E-2,1.114063263E0
1.799090594E1,-1.214283943E0,-2.855367661E-1,1.397776604E0
1.800090470E1,-1.319637179E0,-6.082931757E-1,1.502464294E0
1.801090347E1,-1.358565807E0,-9.905922413E-1,1.604289055E0
1.802090217E1,-1.390012264E0,-1.167823553E0,1.617791176E0
1.803090090E1,-1.421963692E0,-1.255971670E0,1.493363380E0
1.804089973E1,-1.398313284E0,-1.222263575E0,1.207697868E0
1.805089847E1,-1.337568760E0,-1.087950468E0,7.553596497E-1
1.806089720E1,-1.296053290E0,-9.225611687E-1,2.244176865E-1
1.807089593E1,-1.223005533E0,-7.702373266E-1,-2.399024963E-1
1.808089467E1,-1.143996119E0,-6.328339577E-1,-6.339912415E-1
1.809089336E1,-1.131902337E0,-4.910303354E-1,-9.728708267E-1
1.810089206E1,-1.180632114E0,-2.789211273E-1,-1.321548462E0
1.811089096E1,-1.324724674E0,1.707553864E-2,-1.680416584E0
1.812088973E1,-1.342860818E0,2.886514664E-1,-1.990080357E0
1.813088843E1,-1.358602285E0,5.042803288E-1,-2.169598103E0
1.814088720E1,-1.221578360E0,5.905594826E-1,-2.147943974E0
1.815088596E1,-1.073272109E0,4.753882885E-1,-1.946600437E0
1.816088466E1,-8.752323389E-1,2.841625214E-1,-1.610691547E0
1.817088343E1,-8.370158672E-1,1.862621307E-1,-1.354969025E0
1.818088220E1,-8.028652668E-1,1.055345535E-1,-1.264574051E0
1.819088096E1,-7.813804746E-1,-9.682416916E-3,-1.288881302E0
1.820087973E1,-8.281142712E-1,-1.038179398E-1,-1.480109692E0
1.821087849E1,-8.659250736E-1,-1.480329037E-1,-1.704228401E0
1.822087726E1,-8.636432886E-1,-1.458888054E-1,-1.901714325E0
1.823087602E1,-8.412063122E-1,-1.039335728E-1,-2.156508446E0
1.824087472E1,-8.278307915E-1,-3.967738152E-2,-2.306230068E0
1.825087349E1,-7.976257205E-1,9.822845459E-4,-2.408869267E0
1.826087226E1,-7.596191168E-1,1.194422245E-1,-2.465315342E0
1.827087096E1,-7.304983735E-1,2.281818390E-1,-2.334526062E0
1.828086972E1,-6.472138166E-1,3.629021645E-1,-2.095393181E0
1.829086849E1,-4.962294400E-1,5.098037720E-1,-1.850327969E0
1.830086726E1,-3.963002264E-1,6.068413258E-1,-1.637042999E0
1.831086602E1,-4.059314132E-1,6.490447521E-1,-1.419577599E0
1.832086479E1,-4.188746512E-1,6.102812290E-1,-1.063857079E0
1.833086355E1,-4.298980832E-1,5.016481876E-1,-8.156042099E-1
1.834086222E1,-4.752634168E-1,5.242230892E-1,-6.071748734E-1
1.835086095E1,-5.124370456E-1,6.301507950E-1,-4.307918549E-1
1.836085975E1,-5.410381556E-1,7.337870598E-1,-2.076282501E-1
1.837085865E1,-5.814531446E-1,8.236680031E-1,-2.882575989E-2
1.838085758E1,-6.214865446E-1,8.941986561E-1,3.814125061E-2
1.839085658E1,-6.732107401E-1,9.827084541E-1,1.365423203E-1
1.840085565E1,-6.983638406E-1,1.070222616E0,1.939191818E-1
1.841085445E1,-6.944879889E-1,1.098434687E0,3.511610031E-1
1.842085345E1,-6.382493973E-1,1.105990887E0,5.842685699E-1
1.843085248E1,-5.267479420E-1,1.062909842E0,7.690963745E-1
1.844085152E1,-4.439594448E-1,9.710180759E-1,9.273509979E-1
1.845085062E1,-4.165672660E-1,9.306344986E-1,1.164467812E0
1.846084972E1,-4.923875928E-1,9.320948124E-1,1.339163780E0
1.847084882E1,-5.160276890E-1,8.901724815E-1,1.547484398E0
1.848084792E1,-4.669115245E-1,8.346061707E-1,1.624415398E0
1.849084695E1,-3.775236905E-1,7.493307590E-1,1.448096275E0
1.850084605E1,-4.162934422E-1,7.795281410E-1,1.128856659E0
1.851084515E1,-3.993532062E-1,8.334777355E-1,8.777017593E-1
1.852084418E1,-3.533844352E-1,8.369233608E-1,7.666597366E-1
1.853084328E1,-2.898485959E-1,7.845952511E-1,5.013771057E-1
1.854084238E1,-1.928015202E-1,6.642315388E-1,3.070135117E-1
1.855084148E1,-1.535106897E-1,6.079812050E-1,4.163551331E-2
1.856084058E1,-1.134306192E-1,6.209030151E-1,-1.805791855E-1
1.857083972E1,5.850368738E-2,5.399663448E-1,-6.001462936E-1
1.858083882E1,1.955461800E-1,3.291478157E-1,-8.302984238E-1
1.859083792E1,2.947359979E-1,-1.311826706E-2,-8.171215057E-1
1.860083695E1,4.689538777E-1,-4.970633984E-1,-4.536361694E-1
1.861083605E1,5.272048712E-1,-9.453132153E-1,2.876815796E-1
1.862083515E1,4.186801612E-1,-1.258870125E0,7.593803406E-1
1.863083418E1,2.112712860E-1,-1.481917024E0,1.226518631E0
1.864083328E1,-1.602122039E-1,-1.722989798E0,1.501524925E0
1.865083235E1,-5.097910762E-1,-1.824411154E0,1.612087250E0
1.866083138E1,-7.458311319E-1,-1.827822566E0,1.434702873E0
1.867083035E1,-1.001384497E0,-1.497165680E0,9.584960938E-1
1.868082925E1,-1.059767485E0,-1.055499792E0,3.025636673E-1
1.869082815E1,-8.910992146E-1,-8.028106689E-1,-2.131967545E-1
1.870082698E1,-6.206372976E-1,-6.161502600E-1,-6.480121613E-1
1.871082581E1,-4.969488978E-1,-4.854363203E-1,-8.891668320E-1
1.872082465E1,-3.352504671E-1,-4.165940285E-1,-9.573040009E-1
1.873082345E1,-1.899417937E-1,-3.336304426E-1,-8.152265549E-1
1.874082218E1,-7.681554556E-2,-3.709214926E-1,-6.804552078E-1
1.875082091E1,-7.894600928E-2,-4.779996872E-1,-5.909805298E-1
1.876081964E1,-1.663063914E-1,-5.759937763E-1,-6.013755798E-1
1.877081831E1,-2.171690762E-1,-5.985831022E-1,-6.343040466E-1
1.878081704E1,-2.490781397E-1,-5.424077511E-1,-6.750411987E-1
1.879081581E1,-3.974632025E-1,-5.061452389E-1,-7.186937332E-1
1.880081458E1,-4.464208484E-1,-5.792663097E-1,-7.410335541E-1
1.881081334E1,-3.896936774E-1,-6.255576611E-1,-8.826665878E-1
1.882081211E1,-4.148922265E-1,-5.530296564E-1,-1.085772514E0
1.883081087E1,-3.877940774E-1,-3.803713322E-1,-1.336031914E0
1.884080964E1,-2.985653281E-1,-1.724126339E-1,-1.532810211E0
1.885080834E1,-4.168858379E-2,-2.681398392E-2,-1.618707180E0
1.886080711E1,-5.562184006E-2,1.307823658E-1,-1.687151909E0
1.887080584E1,-3.233411908E-1,1.404886246E-1,-1.802983284E0
1.888080454E1,-4.796121716E-1,6.791615486E-2,-1.815576553E0
1.889080331E1,-6.350327730E-1,8.755207062E-3,-1.553094387E0
1.890080207E1,-7.031033039E-1,-1.925587654E-2,-1.381526947E0
1.891080077E1,-8.442212343E-1,1.272780895E-1,-1.302670479E0
1.892079954E1,-8.771333694E-1,3.210661411E-1,-1.258977890E0
1.893085678E1,-8.264566064E-1,4.639699459E-1,-1.294121742E0
1.894085554E1,-7.623397112E-1,6.034481525E-1,-1.078206062E0
1.895085431E1,-1.082434416E0,9.493794441E-1,-1.725034714E0
1.896085304E1,-1.087730169E0,1.008857489E0,-1.410134315E0
1.897085181E1,-7.213320732E-1,9.696612358E-1,-9.280157089E-1
1.898085058E1,-7.650729418E-1,9.884614944E-1,-7.057857513E-1
1.899084928E1,-8.732156157E-1,9.531946182E-1,-5.250616074E-1
1.900084804E1,-1.018561482E0,8.172841072E-1,-1.299467087E-1
1.901084681E1,-1.170018315E0,4.770078659E-1,4.654817581E-1
1.902084554E1,-1.400536180E0,1.143820286E-1,1.092541695E0
1.903084431E1,-1.661768556E0,-7.476067543E-2,1.491739273E0
1.904084307E1,-1.752462506E0,5.138206482E-2,1.955217361E0
1.905084184E1,-1.615199566E0,3.260259628E-1,2.105244637E0
1.906084060E1,-1.338314772E0,6.127016544E-1,2.191038132E0
1.907083937E1,-1.079519510E0,9.751386642E-1,1.838670731E0
1.908083817E1,-1.051539183E0,1.288692236E0,1.204810143E0
1.909083687E1,-1.019789577E0,1.350757360E0,5.966033936E-1
1.910083550E1,-1.008487463E0,1.223841190E0,2.097930908E-1
1.911083420E1,-1.149703503E0,9.781045914E-1,2.205009460E-1
1.912083294E1,-1.229313612E0,5.970799923E-1,2.152280807E-1
1.913083160E1,-1.211588383E0,2.244589329E-1,4.591770172E-1
1.914083034E1,-1.072651625E0,-1.199245453E-2,7.991752625E-1
1.915082907E1,-9.192795157E-1,-1.885497570E-1,1.020909309E0
1.916082773E1,-6.868683696E-1,-2.421193123E-1,1.219233513E0
1.917082647E1,-4.420768619E-1,-2.414631844E-1,1.369260788E0
1.918082520E1,-3.554521799E-1,-1.672956944E-1,1.249223709E0
1.919082393E1,-3.410662115E-1,-1.182279587E-1,7.537136078E-1
1.920082270E1,-3.262992501E-1,-2.007346153E-1,2.722167969E-1
1.921082147E1,-2.797267437E-1,-2.974414825E-1,-6.646442413E-2
1.922082023E1,-1.794099808E-1,-4.172146320E-1,-2.955160141E-1
1.923081900E1,-1.887124777E-1,-4.181621075E-1,-4.214992523E-1
1.924081770E1,-3.986240327E-1,-2.265315056E-1,-5.484304428E-1
1.925081646E1,-6.107568741E-1,-8.165502548E-2,-6.582441330E-1
1.926081523E1,-6.640182734E-1,-1.089999676E-1,-7.492475510E-1
1.927081390E1,-6.675475836E-1,-2.281069756E-1,-9.313392639E-1
1.928081266E1,-7.383470535E-1,-2.185034752E-1,-1.003386497E0
1.929081143E1,-6.161867380E-1,-2.683751583E-1,-9.856166840E-1
1.930081019E1,-5.502985716E-1,-3.788986206E-1,-9.828500748E-1
1.931080896E1,-5.300834775E-1,-5.782575607E-1,-1.083225250E0
1.932080769E1,-5.118306279E-1,-7.060978413E-1,-1.111785889E0
1.933080646E1,-4.916641712E-1,-7.327158451E-1,-1.090311050E0
1.934080522E1,-4.992852509E-1,-7.528219223E-1,-1.047205925E0
1.935080392E1,-6.231912971E-1,-7.181911469E-1,-1.060992241E0
1.936080269E1,-7.174564004E-1,-6.729006767E-1,-1.207136154E0
1.937080146E1,-8.617716432E-1,-5.650947094E-1,-1.370335102E0
1.938080012E1,-1.037617326E0,-4.302871227E-1,-1.440468311E0
1.939079892E1,-1.096145391E0,-3.335149288E-1,-1.445951462E0
1.940079772E1,-1.163581848E0,-2.645282745E-1,-1.498648643E0
1.941079646E1,-1.203799725E0,-1.796939373E-1,-1.595604897E0
1.942079522E1,-1.254315615E0,-6.962299347E-3,-1.768054485E0
1.943079399E1,-1.151938081E0,5.927085876E-2,-1.911234856E0
1.944079275E1,-1.060335398E0,1.719901562E-1,-2.025732517E0
1.945079155E1,-1.098794103E0,2.522780895E-1,-2.155390263E0
1.946079045E1,-1.169459462E0,2.774524689E-1,-2.128086567E0
1.947078935E1,-1.238108158E0,3.093819618E-1,-1.902916431E0
1.948078832E1,-1.237294078E0,2.522504330E-1,-1.586844444E0
1.949078725E1,-1.195753455E0,2.316551208E-1,-1.173395157E0
1.950078625E1,-1.106966019E0,2.995674610E-1,-8.454418182E-1
1.951078525E1,-9.262219667E-1,4.351189137E-1,-4.270544052E-1
1.952078425E1,-7.331747413E-1,5.960149765E-1,-1.818342209E-1
1.953078332E1,-5.969964266E-1,7.775006294E-1,-5.781936646E-2
1.954078238E1,-4.968881011E-1,9.168050289E-1,-1.065769196E-1
1.955078145E1,-5.322446823E-1,1.013112783E0,-3.349237442E-1
1.956078052E1,-6.641095281E-1,1.057894468E0,-3.448276520E-1
1.957077962E1,-7.900250554E-1,1.147933483E0,-9.706249237E-1
1.958077868E1,-3.443246484E-1,9.280381203E-1,-4.772691727E-1
1.959077775E1,-2.688361704E-2,6.974229813E-1,-1.798629761E-3
1.960077675E1,-2.740277946E-1,5.601713657E-1,3.848104477E-1
1.961077581E1,-4.832222164E-1,6.337826252E-1,8.518400192E-1
1.962077488E1,-5.935735703E-1,6.851952076E-1,1.290984154E0
1.963077388E1,-6.032781601E-1,8.022034168E-1,1.857960701E0
1.964077295E1,-4.833404422E-1,9.036312103E-1,2.126182556E0
1.965077205E1,-2.904464006E-1,9.897787571E-1,2.089491844E0
1.966077108E1,8.089160919E-2,9.541296959E-1,1.537118912E0
1.967077015E1,2.902860641E-1,7.701723576E-1,9.164285660E-1
1.968076921E1,3.862204552E-1,6.846876144E-1,6.796321869E-1
1.969076828E1,3.935042024E-1,6.596381664E-1,6.522035599E-1
1.970076734E1,4.384803772E-1,4.740426540E-1,8.775453568E-1
1.971076641E1,4.712022543E-1,2.546391487E-1,1.215193748E0
1.972076548E1,4.852662683E-1,5.618166924E-2,1.453318596E0
1.973076454E1,4.642958045E-1,-1.387574673E-1,1.518836021E0
1.974076354E1,3.856655359E-1,-3.080019951E-1,1.403306961E0
1.975076257E1,2.865525484E-1,-5.029911995E-1,1.237115860E0
1.976076151E1,1.455430388E-1,-7.425123453E-1,9.497509003E-1
1.977076037E1,1.268625855E-1,-9.028036594E-1,6.684017181E-1
1.978075924E1,1.745410860E-1,-9.057996273E-1,3.599100113E-1
1.979075807E1,2.405808270E-1,-8.177138567E-1,-2.070808411E-2
1.980075687E1,3.051729202E-1,-7.948409319E-1,-3.474779129E-1
1.981075567E1,2.984639108E-1,-7.272105217E-1,-6.447801590E-1
1.982075441E1,1.225676537E-1,-4.826190472E-1,-8.773479462E-1
1.983075314E1,-3.708487749E-2,-3.143875599E-1,-1.068172455E0
1.984075187E1,-1.070358157E-1,-2.744128704E-1,-1.225342751E0
1.985075054E1,-5.780503154E-2,-3.880281448E-1,-1.402546883E0
1.986074927E1,-4.671910405E-2,-5.096001625E-1,-1.523842335E0
1.987074800E1,-3.124567866E-2,-5.932269096E-1,-1.508819580E0
1.988074667E1,-1.041452289E-1,-6.981902122E-1,-1.427924156E0
1.989074540E1,-1.618607938E-1,-7.859361172E-1,-1.374014854E0
1.990074414E1,-2.604403794E-1,-8.440746069E-1,-1.260308266E0
1.991074284E1,-3.622022569E-1,-8.437489271E-1,-1.186676025E0
1.992074160E1,-4.585323632E-1,-8.001725674E-1,-1.192815781E0
1.993074037E1,-5.264604688E-1,-7.703549862E-1,-1.177555084E0
1.994073913E1,-5.699257851E-1,-6.642129421E-1,-1.142971039E0
1.995073787E1,-6.359695196E-1,-5.432507992E-1,-1.150862694E0
1.996073660E1,-6.327540874E-1,-4.204053879E-1,-1.277590752E0
1.997073537E1,-6.403870583E-1,-2.541966438E-1,-1.370186806E0
1.998073413E1,-6.564877033E-1,-8.479237556E-2,-1.462328911E0
1.999073283E1,-6.683616638E-1,-6.432414055E-2,-1.434572697E0
2.000073160E1,-6.357777119E-1,-1.019043922E-1,-1.454482555E0
2.001073036E1,-6.185545921E-1,-6.931066513E-2,-1.404420853E0
2.002072906E1,-6.002560854E-1,7.249331474E-2,-1.380370140E0
2.003072783E1,-6.117196679E-1,2.585015297E-1,-1.284060478E0
2.004072660E1,-6.041784286E-1,4.401648045E-1,-1.211082458E0
2.005072536E1,-5.606716275E-1,5.127530098E-1,-1.135279655E0
2.006072413E1,-5.471840501E-1,5.770387650E-1,-1.162084579E0
2.007072289E1,-5.581425428E-1,6.979248524E-1,-1.205384254E0
2.008072166E1,-5.191980600E-1,8.214356899E-1,-1.208005905E0
2.009072039E1,-4.965005815E-1,9.676232338E-1,-1.088802338E0
2.010071906E1,-5.503612757E-1,1.073672533E0,-8.411664963E-1
2.011071782E1,-6.224556565E-1,1.084278107E0,-6.087083817E-1
