Time (s),Linear Acceleration x (m/s^2),Linear Acceleration y (m/s^2),Linear Acceleration z (m/s^2)
0.009399,0.2475440502,1.158497334,-1.087595463
0.019401,-0.02094602585,1.646047592,-0.9309244156
0.0274005,-0.4375498295,1.998005867,-0.3682694435
0.0367845,-0.3724586964,2.150173664,-0.4428329468
0.046792,-0.9925758839,2.363264084,-0.3374848366
0.0551944,-0.9805388451,2.450137615,-0.2656459808
0.064194566,-0.9805388451,2.450137615,-0.2656459808
0.074202566,-0.9150829315,2.535302162,-0.216676712
0.083704566,-0.6612896919,2.935146332,1.650857925
0.093704566,-0.6369624138,2.821671486,2.133066177
0.103505866,-0.5539295673,2.486207485,2.887713432
0.112960593,-0.4374890327,2.618322849,2.805447578
0.122629509,-0.4063634872,2.618322849,2.850938797
0.132629432,0.3071689606,2.235461473,3.058745384
0.14262936,0.4823255539,2.055878162,2.856146812
0.15262836,0.5415210724,1.990716219,2.74894619
0.162627485,0.5610115528,1.962601662,2.708924294
0.172626602,0.7173566818,1.754521847,2.808218002
0.182625768,0.7503402233,1.655787706,2.790523529
0.192624978,1.742912769,1.465248585,2.700687408
0.202624278,1.399888754,1.21785903,2.714100838
0.212623611,1.117930651,0.5081913471,2.749990463
0.222622929,1.034110308,-0.01293897629,1.865348816
0.232622276,1.166397572,-0.09475493431,0.8626699448
0.242621651,1.096424818,0.05096006393,0.2427396774
0.252621091,0.6205801964,-0.1294100285,0.0002899169922
0.262620552,0.7248408794,-0.1668257713,-1.241575718
0.272619996,1.259001017,-0.06304001808,-0.717376709
0.28261946,0.9334800243,-0.4639549255,-0.845539093
0.292618942,0.4857027531,-0.8036227226,-0.9843564034
0.302618442,-0.2465071678,-0.8272037506,-1.326468945
0.312617908,-0.9810991287,-0.901471138,-2.204118729
0.322750808,-1.276298404,-0.444439888,-2.885983944
0.332811908,-1.505355477,-0.07403802872,-3.744949341
0.342810408,-1.930498004,0.7324864864,-4.164054871
0.353076174,-2.068556309,0.40706563,-4.733158112
0.363275674,-2.61132741,-0.05526375771,-4.529533386
0.37327334,-3.169058084,-0.4110019207,-3.795413971
0.38340564,-3.403985977,-0.5220172405,-3.009377956
0.39340514,-3.395938873,-0.7141711712,-2.714001179
0.403470873,-3.386390924,-1.115449429,-2.5270648
0.413670339,-3.319438219,-1.017047882,-3.384571552
0.423802272,-3.522672176,-0.6040437222,-3.142885208
0.433801805,-3.515572786,-0.2822477818,-2.280784607
0.443801338,-2.955287933,-0.1865105629,-1.633577347
0.453801338,-2.416706324,-0.1172218323,-1.03142643
0.463801304,-1.78179121,0.279282093,-0.5154218674
0.473801337,-1.581608295,0.5935461521,-0.09484910965
0.48380137,-2.41516161,0.8170597553,0.6656847
0.49380137,-2.218013525,1.321266413,-0.3840928078
0.503801336,-2.697805405,1.545783043,-0.0282998085
0.513801302,-2.504778862,1.158275843,-0.3109960556
0.523801335,-2.911170006,0.5994179249,-0.5498380661
0.533801335,-2.962667942,0.1641857624,0.8756232262
0.543801335,-2.714479923,0.7778365612,2.220314503
0.553801301,-3.725819111,1.519499302,2.674476624
0.563801301,-3.448794842,1.271852493,2.158549309
0.573801334,-3.067811489,1.291006565,2.420108795
0.583801334,-3.09644413,1.77781868,2.4565382
0.593801334,-3.239286423,1.303960562,2.036203384
0.6038013,-3.807122707,0.7647640705,2.247186661
0.613801233,-3.874981403,0.1812508106,2.72253418
0.623801199,-2.689966679,0.2925899029,2.49802494
0.633801232,-1.727618217,0.4692800045,2.598442078
0.643801232,-1.113431692,0.03911375999,2.596766472
0.653801232,-1.510989428,0.0079164505,3.523251534
0.663801198,-2.009320974,0.545194149,3.443897247
0.673801198,-2.364686966,0.6876547337,4.031451225
0.683801231,-2.475670576,0.161438942,5.229342461
0.693801231,-1.90403223,0.3031690121,6.016872406
0.703801231,-0.8267635107,0.8586502075,7.302588463
0.713801197,-0.758523941,1.181682825,5.652778625
0.72380123,-1.603818893,1.674321651,4.567849159
0.733801263,-2.583734274,1.655678034,3.466572762
0.743801263,-2.308400869,2.16221714,2.173203468
0.753801263,-3.606182575,2.048852444,2.826414108
0.763801263,-4.360464096,1.370820999,1.99061203
0.773801229,-3.08393836,1.244481087,-0.1703367233
0.783801229,-2.144525528,0.3439393044,-1.334421158
0.793801262,-1.810845613,0.966153264,-0.1460285187
0.803801262,-0.9167796969,1.860403419,0.9121723175
0.813801262,-0.6384271979,2.901208639,1.931697845
0.823801228,-0.5623464584,3.174911737,0.365986824
0.833801261,0.5122878551,2.211545229,0.1720285416
0.843801261,1.929001331,0.7114781141,1.353068352
0.853801261,1.838656187,-0.377874732,1.512601852
0.863801227,1.698105812,-0.4109968543,-2.097796917
0.873801193,0.697106123,-2.267513752,-3.0519557
0.883801193,1.042311549,-2.901039839,-3.2113657
0.893801226,2.150865555,-1.198784471,-1.204768181
0.903801292,3.272850513,-0.9771817923,-2.641376495
0.913801325,4.411397457,-0.7467919588,-3.14739275
0.923801325,4.850205421,-0.4312161505,-2.561843395
0.933801358,6.73151207,0.6910778284,-3.250548363
0.943801358,7.031760693,1.165090561,-3.782163143
0.953801324,8.691837311,2.403912067,-0.9555635452
0.96380129,10.83867836,2.897787809,3.355155945
0.973801256,8.297904015,0.4078201652,2.973922729
0.983801222,5.035622597,-1.786676288,-2.721203327
0.993801255,4.376470566,-1.987834334,-3.822608948
1.003801255,4.307125568,-1.446892023,-4.48327446
1.013801255,4.263295174,-1.328589797,-5.317227364
1.023801221,4.124030113,-1.566627383,-6.115419865
1.033801187,3.573770046,-1.477833271,-6.386305809
1.04380122,3.294372082,-1.07996273,-6.055007935
1.05380122,2.505468845,-0.5965127945,-5.472262859
1.06380122,1.562420964,-0.1049141288,-4.083190441
1.07380122,1.135712624,0.5048974156,-3.073367119
1.083801186,-1.115531445,1.198365211,1.780350685
1.093801186,-0.2358987331,1.645397902,8.14385891
1.103801219,1.08538425,1.912953138,8.171330452
1.113801219,-0.8738852143,1.076242208,4.252114296
1.123801219,-0.6723008752,2.818963766,1.268949509
1.133801185,0.6137005687,4.459486485,2.103276253
1.143801218,1.027287722,4.271162987,1.056903839
1.153801218,0.2298847139,3.988935947,4.140688896
1.163801218,-0.4892334342,3.59166193,5.536105156
1.173801218,-2.142475367,2.768888712,3.99826622
1.183801218,-2.929473877,2.433753014,4.222736359
1.193801184,-2.981194019,1.806908131,4.421262741
1.20380115,-2.650557041,1.111322641,4.702137947
1.21380115,-2.194818497,0.5903217793,4.579325676
1.22380115,-2.291429043,0.1574654579,5.203583717
1.233801083,-2.364260197,0.2791807652,5.374539375
1.243801083,-2.884023428,0.3870282173,5.553946495
1.253801149,-3.165513992,0.5273439884,5.314390182
1.263801215,-3.830772161,0.9161782265,4.747649193
1.273801215,-4.4799757,1.455515981,4.338691711
1.283801215,-4.672186852,1.68008554,3.920310974
1.293801181,-4.950781822,1.954455972,2.860814095
1.303801214,-4.79666996,-0.5607813597,-6.38807106
1.313801214,-4.201570034,-0.9972604513,-6.151076317
1.323801214,-3.493728399,-1.665332079,-6.603116989
1.333801214,-3.036503553,-1.95356667,-7.603998661
1.343801214,-3.143108845,-1.970637441,-7.915935516
1.353801247,-5.15188694,-1.321873426,-7.007157803
1.363801247,-2.875777006,-2.336137295,-5.859838963
1.373801247,-2.826464176,-2.706159115,-6.381899834
1.383801247,-3.815266609,-2.36592555,-7.498624802
1.393801213,-5.650747299,-2.406390429,-8.720005035
1.403801179,-5.627537727,-2.702587843,-9.10773468
1.413801212,-5.373338223,-3.291771173,-8.366817474
1.423801212,-5.040542603,-3.458277702,-7.601380348
1.433801212,-4.903794289,-3.496282578,-5.640855789
1.443801178,-4.861545086,-2.988794327,-1.962404251
1.453801211,-4.639935493,-2.101926804,-0.2363977432
1.463801244,-4.461534977,-1.101894379,-1.177998543
1.473801244,-5.36135006,-0.6363871098,-1.287402153
1.483801244,-6.466178894,-0.1752870083,-1.010005951
1.493801244,-7.395983219,-0.1280374527,0.8662462234
1.503801277,-7.491205215,0.2177619934,4.451313019
1.51380131,-6.400907993,0.7118635178,5.475962639
1.52380131,-5.245854855,0.8569090366,6.134017944
1.53380131,-3.930788517,1.142181158,6.942415237
1.54380131,-2.613417625,1.69373703,7.443054199
1.553801276,-0.5871704817,2.869518995,7.281546593
1.563801276,1.440283537,4.47906971,6.873394012
1.573801309,1.444296479,5.037204742,6.816866875
1.583801309,0.803149581,4.918971062,5.799210548
1.593801309,0.5080149174,4.787549973,4.978212357
1.603801275,0.6531462669,4.551136017,4.06888485
1.613801308,1.673010707,3.703090668,3.034083366
1.623801341,2.780878067,2.559148073,1.806445122
1.633801341,3.930216312,1.687283516,0.7364530563
1.643801307,4.446968079,1.261152983,-0.1498126984
1.653801273,4.711874962,0.8251283169,-1.48942852
1.663801306,5.246263981,0.01248693466,-2.243179321
1.673801306,5.847277164,-0.7123301029,-3.333770752
1.683801306,6.134516716,-1.64578104,-3.870630264
1.693801306,6.660545349,-1.80977869,-5.090661049
1.703801306,7.252042294,-2.416781664,-6.147658825
1.713801272,7.389093399,-2.891871929,-6.956487656
1.723801305,7.173388958,-3.258805275,-6.903476715
1.733801338,6.821871758,-3.397884846,-6.648028374
1.743801338,6.018639565,-3.648962498,-6.50880909
1.753801304,5.506508827,-3.861073971,-5.650270462
1.76380127,5.209079742,-3.831094265,-5.220785141
1.773801303,4.415048122,-3.990264654,-4.528444767
1.783801303,3.540172577,-4.414036274,-4.326980591
1.793801303,3.410058975,-4.611711025,-4.040793896
1.803801269,3.68524766,-4.285803318,-3.474640369
1.813801269,3.099866152,-4.294253349,-3.290390015
1.823801302,3.219744205,-3.698235035,-3.013448715
1.833801302,3.57850647,-2.723256111,-2.431803226
1.843801302,3.510739326,-1.497734666,-1.465863705
1.853801302,3.989006042,-0.2584178448,-0.7463006973
1.863801268,4.890448093,0.9736614227,0.3686275482
1.873801234,6.06144619,1.236705303,2.679758072
1.883801267,4.973324299,1.477497339,7.716536522
1.893801267,3.441115379,1.985797405,7.704968452
1.903801267,1.411103725,2.154541731,9.53122139
1.913801233,-0.4052430987,1.607713461,12.41935921
1.923801233,-1.072167039,0.4780254364,12.0240984
1.933801266,-2.011952877,1.05991745,11.54350376
1.943801266,-1.193010449,1.722651005,11.08760262
1.953801266,-1.23531425,2.313931465,10.34361076
1.963801232,-2.365072012,3.517333031,8.092679024
1.973801232,-3.688369989,4.43597126,6.672275543
1.983801232,-4.527001858,4.702693462,5.15867424
1.993801265,-5.255712509,4.160867214,3.650819778
2.003801265,-5.838139534,3.612576962,2.382749557
2.013801265,-6.206066608,3.018053055,1.36763382
2.023801231,-6.788083553,2.266807079,0.7707509995
2.033801231,-7.079666138,1.39504385,-0.2256402969
2.043801264,-7.206218719,0.4743142128,-1.091080189
2.053801264,-7.159369946,-0.07094287872,-2.20455265
2.063801264,-6.753097057,-0.04814147949,-3.463075638
2.07380123,-6.616276264,0.2982358932,-3.843460083
2.083801263,-6.037343025,-0.1293888092,-6.013585091
2.093801263,-6.119772434,-0.6304273605,-6.635493279
2.103801263,-6.219921589,-1.518944979,-7.196223259
2.113801229,-5.878350258,-2.156119823,-8.103914261
2.123801195,-5.119080544,-2.635246754,-8.848381042
2.133801228,-4.433653831,-3.01109457,-9.262836456
2.143801228,-4.054797649,-3.566980839,-9.451407433
2.153801228,-3.615406036,-3.758519888,-9.138581276
2.163801228,-2.875866413,-3.901191235,-8.426699638
2.173801228,-2.930517435,-4.006270885,-7.74301815
2.183801194,-3.0571208,-3.280360222,-7.244029999
2.193801227,-2.963827133,-3.087081432,-6.938178062
2.203801227,-2.709824562,-3.292482853,-6.588063717
2.213801227,-3.077697039,-2.162211418,-6.269080162
2.223801193,-2.107413292,-1.71570611,-7.669597626
2.233801159,-1.945855856,-1.607195616,-9.516910553
2.243801192,-1.494520426,-1.375204325,-8.529427528
2.253801192,-2.05631423,-0.5524902344,-5.805207253
2.263801192,-3.322615385,0.2127761841,-3.829847336
2.273801192,-3.692993641,0.7309093475,-3.712299347
2.283801192,-4.554868698,0.9385137558,-2.160373211
2.293801158,-4.690090179,0.6752681732,0.7968597412
2.303801191,-4.460254669,0.614346981,2.212457657
2.313801191,-4.722107887,1.516587257,4.053494453
2.323801191,-4.06804657,2.736378193,6.586306572
2.333801157,-2.760693789,3.368359566,8.491524696
2.343801157,-1.425283909,5.019423485,8.422317505
2.35380119,-0.8525943756,6.121814251,7.183235168
2.36380119,-0.4031329155,7.473399162,7.457400322
2.37380119,-1.350783825,7.173232079,7.77405262
2.383801156,-0.8259339333,7.100347996,4.209023476
2.393801189,-3.365067244,6.156431198,5.195569038
2.403801222,-3.37001276,4.199811935,4.527536392
2.413801222,-2.607936144,2.888570786,4.156153679
2.423801188,-1.911386251,2.663110733,3.275213242
2.433801154,0.6025013924,1.823680401,0.873960495
2.443801154,2.652847528,1.621540546,-0.4522829056
2.453801187,4.274098396,0.5719389915,-1.440215588
2.46380122,6.412534714,0.7675833702,-2.548561573
2.47380122,6.824347496,0.6315207481,-2.099740505
2.48380122,7.822314262,-1.14531374,-4.408846855
2.493801186,8.26644516,-1.870322704,-4.385559559
2.503801219,7.693284988,-2.782926559,-3.712741852
2.513801252,6.90931797,-3.996021986,-2.676315784
2.523801252,6.827336311,-5.015289307,-2.092690945
2.533801252,6.781939983,-5.673467636,-0.8218727112
2.543801218,6.928681374,-6.234530449,-0.7034959793
2.553801251,7.079253197,-6.526846886,-0.860212326
2.563801251,6.561279297,-6.149983406,-1.836360931
2.573801251,5.825670242,-5.311056137,-1.606775761
2.583801217,4.96531868,-4.750967979,-2.967084885
2.59380125,4.946616173,-4.277989864,-4.195762157
2.60380125,4.445529461,-3.383969069,-3.953403473
2.61380125,3.535100937,-2.988593817,-3.546638489
2.62380125,3.314118385,-3.229074001,-2.488124847
2.63380125,4.060369968,-3.103799105,-1.373306751
2.643801216,2.548962593,-3.584644556,-0.7889966965
2.653801182,1.568372011,-2.91543293,0.5681066513
2.663801215,1.823051214,-1.779554367,1.591724396
2.673801215,1.80021739,-0.8818950653,2.512257576
2.683801215,1.62986517,0.09575796127,3.572570801
2.693801181,1.25688076,0.7623949051,4.247926712
2.703801181,0.2039764524,1.433801651,5.205140114
2.713801214,-0.2073249817,1.507275105,6.887340546
2.723801247,-0.6573732495,1.558917999,8.304278374
2.73380128,-2.009737253,1.927060127,8.503077507
2.74380128,-2.738801003,2.879889965,8.140377045
2.75380128,-3.620599985,3.858632565,7.42814064
2.76380128,-3.693924427,4.145085812,6.336706161
2.77380128,-4.260496616,4.734610081,5.095066071
2.78380128,-4.956126213,4.875463486,2.993947029
2.79380128,-5.052820683,4.495835781,1.863128662
2.803801246,-4.314116955,3.561849594,1.488261223
2.813801246,-5.964818478,2.62752676,2.156236649
2.823801279,-6.790803909,1.688467979,2.062568665
2.833801279,-6.910784245,0.2119283676,1.223130226
2.843801279,-6.831140518,-0.4219517708,0.7911462784
2.853801245,-6.708590031,-0.8343887329,-0.07772445679
2.863801278,-5.943729877,-1.027019262,-2.12859869
2.873801311,-5.95121336,-0.8321866989,-3.081388474
2.883801344,-5.44798851,-0.2750449181,-4.083757877
2.89380131,-3.982575417,0.03742480278,-5.355163097
2.903801276,-4.086531639,0.2771985531,-5.322837353
2.913801309,-3.614734411,0.4915306568,-4.928017616
2.923801309,-3.536305904,0.1320273876,-5.140671253
2.933801309,-3.135063171,-0.338486433,-4.199558258
2.943801309,-2.702023506,-1.172832489,-3.996879578
2.953801309,-1.347386718,-2.428731441,-6.154032707
2.963801275,-0.7079927921,-2.471977234,-6.857922554
2.973801308,-0.2245448977,-2.388327122,-7.060529232
2.983801341,-0.6020908356,-4.641075611,-7.401353359
2.993801341,-2.396109819,-4.485561371,-4.070403099
3.003801307,-4.367706776,-4.509933472,-3.679008007
3.013801273,-6.03318119,-4.747538567,-3.820661068
3.023801306,-6.320421696,-4.99164772,-3.855334282
3.033801272,-6.125606537,-4.27614069,-2.88785696
3.043801272,-5.394709587,-3.364603043,-0.8121628761
3.053801238,-4.7797575,-1.901899099,0.7670145035
3.063801238,-4.09779501,-0.7361292839,1.126523495
3.073801271,-3.65869689,0.2965598106,2.077915668
3.083801271,-3.680920124,1.122842312,4.371610641
3.093801271,-2.791739464,1.360556126,5.221963882
3.103801271,-2.370751858,1.34395504,4.366841793
3.113801237,-2.362190485,1.873132229,2.784285545
3.123801203,-3.206564903,2.457644463,1.585260391
3.133801236,-4.207770824,2.841463089,0.5285458565
3.143801236,-5.360092163,2.817910671,-0.3099541664
3.153801202,-5.912938118,2.708714962,-0.8530817032
3.163801168,-5.666271687,2.653770924,-0.9905667305
3.173801168,-4.815278053,2.92374897,-0.4241762161
3.183801201,-3.842730045,3.030265808,1.000620842
3.193801201,-2.996376038,3.132092476,3.105378628
3.203801201,-2.141981363,2.75053072,4.82838726
3.213801167,-1.047835588,2.11164999,5.806939125
3.2238012,0.102486968,1.105301857,5.494893074
3.233801233,1.340332985,-0.6827297211,4.523901939
3.243801233,1.446797848,-1.63493824,4.11262989
3.253801233,1.122777939,-0.6582581997,4.625628471
3.263801233,1.129719496,-0.8001172543,2.974403381
3.273801199,2.47469759,-1.715264797,0.2096862793
3.283801199,2.457111359,-1.795903921,-2.470617294
3.293801232,2.728502035,-1.844368458,-4.051597595
3.303801232,3.808292389,-2.157886982,-4.370758057
3.313801232,4.48293972,-2.318432808,-4.460343838
3.323801198,4.954167366,-2.357128382,-4.448608875
3.333801231,5.207971573,-2.798924923,-4.199101925
3.343801231,4.779499054,-3.081003189,-3.573846817
3.353801231,4.51847744,-3.527871847,-3.120695591
3.363801197,4.590201855,-3.818911791,-2.947899818
3.373801163,4.850239277,-4.128917217,-2.209706306
3.383801163,5.076491356,-3.855410099,-1.405842781
3.393801229,5.139424324,-3.299995661,-2.110740185
3.403801262,5.026647568,-2.650618076,-3.352313042
3.413801262,4.971055031,-1.760734677,-3.994264126
3.423801262,4.621008873,-0.5059399605,-4.025552273
3.433801228,4.291409969,0.3430097103,-3.502311707
3.443801294,4.32459259,0.8033895493,-3.072751045
3.453801327,4.58399868,1.495125294,-2.805949688
3.463801327,4.137039185,2.407642841,-2.323097229
3.473801327,3.419933081,3.073281765,-1.600456715
3.483801293,2.599564791,3.244093895,-0.8200030327
3.493801326,2.41234827,2.768715382,0.45079422
3.503801326,2.327573538,2.495033264,2.955449104
3.513801326,1.55029428,2.524599552,6.234670639
3.523801292,0.5558415651,2.58096981,8.591853142
3.533801292,-1.108045101,3.591779709,8.682672501
3.543801358,-2.09958601,5.109456062,7.793384552
3.553801358,-2.672056675,6.477241516,6.566803932
3.563801358,-2.687185526,7.312582493,4.776532173
3.573801358,-2.230309725,7.408896923,2.881848335
3.583801324,-2.631368399,6.656707287,2.214345932
3.593801324,-3.218155622,5.523384571,2.843663216
3.603801357,-3.271446228,4.234240532,3.76362896
3.613801357,-3.938060284,1.318080902,3.639840126
3.623801357,-4.17699194,0.1621422768,2.927239418
3.633801323,-4.215764046,0.05115747452,2.11606884
3.643801356,-3.804571152,-0.5607433319,1.180532455
3.653801456,-3.725616217,-1.22435832,0.2480621338
3.663801456,-3.957039595,-1.563079357,-0.8317303658
3.673801456,-4.311751366,-1.811077118,-2.448029995
3.683801456,-4.410039425,-2.148742676,-3.690001965
3.693801389,-4.261820793,-2.451133251,-4.410181999
3.703801389,-4.048053265,-2.889924049,-5.380873203
3.713801422,-3.981467724,-3.130544662,-5.708744049
3.723801422,-4.112809658,-3.45761919,-5.93598175
3.733801422,-4.462461472,-3.616970301,-5.893170834
3.743801355,-4.647109032,-3.598020554,-5.551557064
3.753801388,-4.748173237,-3.809505939,-5.148220539
3.763801421,-4.32618618,-4.216749668,-4.981695175
3.773801387,-3.860177755,-4.537744045,-4.999604225
3.783801387,-3.522253036,-4.659045696,-5.104596615
3.793801353,-3.198632479,-4.300827503,-5.272954941
3.803801386,-3.342015266,-3.899748087,-5.355971813
3.813801386,-3.778164387,-3.209620237,-6.265737534
3.823801386,-3.98800087,-2.804380894,-5.605523109
3.833801352,-4.014168739,-2.136290789,-4.043644428
3.843801318,-3.706371069,-1.353451729,-2.263302326
3.853801351,-3.156369448,-0.4327850342,-0.08018398285
3.863801351,-3.102935791,0.3180875778,-0.1324195862
3.873801351,-3.018050909,0.9495768547,-0.8537626266
3.883801351,-2.949048996,1.628852844,-0.2263040543
3.893801317,-2.80371809,2.264101028,1.10739994
3.903801283,-2.394777536,2.791353703,2.921583176
3.913801316,-2.203430414,3.004767895,4.058392525
3.923801316,-2.34822154,3.155305386,5.558914185
3.933801316,-2.682769537,3.256961823,5.546557426
3.943801316,-2.967759848,4.050334454,5.159481049
3.953801249,-2.885028362,5.014937401,5.005832672
3.963801282,-2.537516832,5.571122169,4.967393875
3.973801282,-2.300431967,5.642167091,4.833830833
3.983801282,-2.063391209,4.526335716,4.12773037
3.993801282,-1.939258575,4.379613876,5.84542942
4.003801282,-1.677628636,3.942053795,6.782068253
4.013801282,-0.8233605623,2.942933083,5.928964615
4.023801282,0.06980492175,2.180782318,5.255552292
4.033801282,0.7706127167,1.463459492,4.108278275
4.043801282,0.8677077889,0.6824493408,2.160956383
4.053801248,1.333613753,0.5229213238,0.9771213531
4.063801248,2.724260807,0.8000349998,-0.8301668167
4.073801281,3.661595345,0.211094141,-2.899771214
4.083801281,4.673079967,1.359952927,-4.029343128
4.093801281,5.075365067,0.6054334641,-4.552628517
4.103801247,4.957879066,-0.6227011681,-5.162604809
4.11380128,4.934779644,-1.399190187,-5.895506382
4.123801313,4.73372364,-2.11994195,-5.998698711
4.133801313,4.155339718,-2.818793058,-5.699121475
4.143801279,3.897779465,-3.193864346,-5.867575645
4.153801212,3.678734303,-3.411950588,-6.094556808
4.163801245,2.779514551,-3.800781727,-5.758802414
4.173801245,2.064614296,-4.202129364,-5.518179417
4.183801245,1.688918352,-4.461840153,-5.575531006
4.193801245,1.674559832,-4.054353237,-5.143651009
4.203801245,2.025078773,-3.538172722,-5.402015686
4.213801211,2.231163979,-2.8664608,-5.364562035
4.223801244,2.427559614,-1.607462645,-4.982968807
4.233801277,2.215975761,0.09801387787,-4.292376995
4.243801243,1.852959275,1.554296494,-3.663651943
4.253801209,2.188424349,2.450489044,-3.022712231
4.263801175,2.901417017,2.950229168,-1.660326004
4.273801208,3.277365923,2.762670517,0.6541509628
4.283801208,3.209327221,2.515828133,2.952402115
4.293801208,2.507260561,1.945770264,5.026285172
4.303801174,1.822208166,1.668538094,6.856547356
4.313801174,1.574561238,1.75615406,8.824043274
4.323801207,0.18265903,1.993622303,9.365513802
4.333801207,-0.8574225903,3.580019474,8.058073044
4.343801207,-1.370945573,4.709517002,6.477179527
4.353801207,-1.909598351,4.956864357,4.69798851
4.371252143,-1.862029791,4.954031467,3.700927734
4.381252109,-2.073612213,4.656459332,2.701352119
4.391252142,-2.475050449,3.577103615,1.982136726
4.401252142,-2.716227055,2.538944721,2.076759338
4.411252142,-2.87973547,1.647397995,2.390901566
4.421252108,-3.025968552,0.979516983,2.455252647
4.431252108,-3.275629997,-0.05319976807,2.167491913
4.441252141,-3.456924438,-0.4743824005,1.473789215
4.451252141,-4.066198349,-1.130394697,0.3959522247
4.461252174,-4.467973709,-1.602336168,-0.843811512
4.47125214,-4.45796299,-1.578979015,-1.857874393
4.481252173,-4.355259418,-1.730014563,-3.035704613
4.491252206,-4.587547302,-2.16070962,-4.158974171
4.501252206,-3.987176418,-1.278582335,-4.066315174
4.511252206,-3.450213432,-1.798076391,-3.763223648
4.521252206,-2.909560204,-2.524994373,-3.995688438
4.531252172,-2.846170664,-3.22726202,-3.833292484
4.541252172,-4.203065395,-2.974917412,-2.870988369
4.551252205,-3.450809002,-3.783020973,-3.12464571
4.561252205,-3.883452415,-3.649044514,-2.976673603
4.571252205,-3.79980278,-3.641003847,-3.21884203
4.581252171,-4.356495857,-3.675957203,-3.176384449
4.591252204,-4.449059963,-4.082129478,-3.26672554
4.601252204,-4.470047951,-4.361228943,-3.35536623
4.611252204,-4.774485588,-4.450761318,-3.196773529
4.62125217,-5.020869255,-4.284288406,-3.048342228
4.631252136,-4.856663704,-3.49959898,-2.775031567
4.641252136,-4.561962128,-2.221722841,-2.615733624
4.651252169,-4.652740002,-0.9114384651,-2.487467766
4.661252202,-4.459563732,-0.2688541412,-2.332377434
4.671252202,-4.213175774,-0.0006470680237,-2.490476608
4.681252202,-4.069906235,0.202044487,-1.510654449
4.691252168,-3.834527969,0.3941025734,0.05622291565
4.701252234,-3.484035969,0.7226028442,2.290044785
4.711252234,-3.34960556,0.8264017105,5.278358459
4.721252234,-2.878410101,1.440487385,6.510122299
4.7312522,-2.675477743,1.982221127,7.010771751
4.741252166,-2.725468874,2.550989628,6.337514877
4.751252232,-2.590919971,3.111009121,4.806365967
4.761252232,-1.988920331,3.32980442,3.781155586
4.771252232,-2.225572824,3.753185749,3.157552719
4.781252198,-2.447374582,4.016545296,2.725295067
4.791252198,-2.246620178,4.177047729,2.368253708
4.801252231,-1.191939235,3.052046776,2.908506393
4.811252231,-0.7569805384,1.225903511,3.534108162
4.821252264,-0.3498248756,0.3386583328,3.34609127
4.831252264,1.372716069,0.9640088081,2.758700371
4.84125223,3.518541098,1.178595066,1.583916664
4.85125223,3.34393096,0.9801278114,-0.1821432114
4.861252263,3.010231972,0.4154744148,-2.229279518
4.871252263,3.189468145,-0.03142428398,-3.644777775
4.881252263,3.665978432,-0.4780738354,-4.671503544
4.891252229,3.935709,-0.936773777,-5.484086037
4.901252262,4.007396221,-1.352253437,-5.716697693
4.911252295,4.288423538,-2.028202057,-5.548501968
4.921252295,4.374457359,-2.598767757,-4.673119545
4.931252295,4.582150936,-3.039202213,-3.890441895
4.941252295,4.993771553,-3.433761358,-3.426162243
4.951252261,5.307713985,-4.068573475,-4.064895153
4.961252261,5.196603775,-3.522067547,-3.725396156
4.971252294,4.187943459,-3.181456804,-2.87897253
4.981252294,4.506291866,-2.837386847,-4.217669964
4.991252294,4.112014771,-3.093858719,-5.265583038
5.001252227,3.41920805,-2.840453625,-5.738014221
5.01125226,3.591175318,-2.096001148,-5.823095322
5.021252293,3.879926205,-1.928412676,-5.898531914
5.031252293,4.11749649,-1.473710775,-5.018601418
5.041252293,4.350546837,-0.7413549423,-3.903677464
5.051252226,4.925963879,-0.3661146164,-2.278377056
5.061252259,6.043955803,0.1159157753,-0.5285334587
5.071252259,5.696754456,0.5007681847,1.763782501
5.081252259,4.671704292,1.021400928,3.71382618
5.091252225,3.754689217,1.479890347,4.588059425
5.101252225,2.732649803,2.445646286,5.229968071
5.111252258,2.466340303,3.624750137,5.470135689
5.121252258,1.406274199,3.247802734,6.460165024
5.131252258,0.6349971294,3.431042671,6.825385094
5.141252258,0.4435817003,4.30137825,6.292432785
5.151252224,-0.09944188595,4.560442924,5.890832901
5.16125219,-0.5226912498,3.940294743,5.310954094
5.17125219,-1.357148886,3.471470833,5.145726204
5.18125219,-2.276973248,2.907920837,5.179131508
5.19125219,-3.344958782,2.231533527,5.3466959
5.201252123,-4.211420536,1.518992424,4.491121292
5.211252123,-4.584536076,0.9845638275,3.230186462
5.221252156,-4.897323132,0.533343792,2.171072006
5.231252156,-5.167630672,0.1573319435,0.4914722443
5.241252156,-5.602450371,-0.4557189941,-1.306812286
5.251252156,-5.998380661,-0.945045948,-2.840270996
5.261252156,-6.612763405,-1.259341002,-3.867591858
5.271252156,-6.851294518,-1.915830374,-4.13515234
5.281252156,-5.866452694,-2.31640172,-3.680723667
5.291252156,-5.391363144,-2.19941926,-3.403252125
5.301252156,-5.305706024,-2.050379276,-3.199967861
5.311252122,-4.396810532,-2.119232416,-3.154229164
5.321252122,-4.378374577,-2.318349838,-3.32824564
5.331252155,-4.298706532,-2.444739819,-3.528361797
5.341252155,-4.040302277,-2.701031446,-3.656554222
5.351252155,-3.987726927,-3.047390938,-3.127643585
5.361252121,-4.124284744,-3.320634842,-2.745303154
5.371252154,-4.679349899,-3.247497082,-3.603420258
5.381252187,-5.510980129,-3.364532948,-4.081623554
5.391252187,-5.598402977,-3.573070049,-4.667438507
5.401252153,-5.69368124,-3.642624855,-4.772886276
5.411252119,-5.362517834,-3.804788589,-4.665460587
5.421252152,-5.396410942,-3.996739864,-3.323951244
5.431252152,-5.006331921,-3.518398285,-2.303854942
5.441252152,-4.390572548,-2.496545792,-1.633170128
5.451252152,-3.632856369,-0.6428070068,-1.258557796
5.461252152,-3.885581493,1.121263027,-1.295557499
5.471252152,-3.949073315,1.83455801,-0.7829966545
5.481252185,-3.492645741,0.740044117,1.920450211
5.491252218,-3.065901518,-0.322224617,3.463664055
5.501252251,-3.32371068,-0.4537825584,3.808806419
5.511252217,-3.324563742,-0.1914300919,3.291960716
5.521252183,-3.597727299,0.6086063385,2.14082098
5.531252216,-3.690664053,1.681490421,1.054524422
5.541252216,-4.002838135,2.837525845,0.6320204735
5.551252216,-4.485436916,3.998369694,0.4713568687
5.561252182,-4.744521141,4.085138321,0.8122553825
5.571252182,-4.214641094,4.513546944,1.318435192
5.581252215,-4.216327667,4.955785751,2.759022713
5.591252215,-3.948851824,4.184709072,2.878499508
5.601252215,-4.347297192,2.320906639,2.696640015
5.611252215,-4.235360622,1.226593494,2.415267944
5.621252181,-3.206083298,0.5931425095,1.848095417
5.631252147,-1.929416656,0.09305119514,1.356604576
5.64125218,-0.7045192719,-0.4222323895,1.532618523
5.65125218,0.3355989456,-0.8418433666,1.561488152
5.66125218,1.078307152,-1.139007568,1.213986874
5.671252146,2.466473579,-1.604683638,0.5753188133
5.681252146,3.390977144,-1.905115128,0.1449670792
5.691252179,4.274885654,-2.271713018,-0.2717518806
5.701252179,4.781555176,-2.07124424,-0.4696726799
5.711252179,5.786306858,-2.710965872,-0.5387911797
5.721252112,6.33668232,-3.64310503,-0.586704731
5.731252145,6.070222855,-3.864117146,-1.377963543
5.741252178,5.721413136,-3.842796564,-2.065165997
5.751252178,5.768181324,-3.962313414,-2.581345558
5.761252178,5.661325932,-3.979146004,-3.168503761
5.771252178,5.251393318,-3.781433821,-3.40255022
5.781252144,5.012010574,-3.564781666,-3.489808559
5.791252144,4.809441566,-3.399425983,-3.280305862
5.801252177,4.835166454,-3.695087433,-2.836910725
5.811252177,4.959945202,-4.192732334,-2.219297409
5.821252177,4.548651695,-4.160045147,-1.922019005
5.831252143,4.401437759,-3.63525629,-2.062094688
5.841252176,4.307323456,-2.78846097,-3.433922291
5.851252176,3.746151924,0.05965423584,-4.865365028
5.861252176,4.000749588,1.831021309,-5.901454926
5.871252142,3.673419952,4.38228035,-5.283277512
5.881252108,2.902686357,5.524727821,-3.638784409
5.891252108,1.96238184,5.127911568,-1.930754662
5.901252141,0.7037572861,4.109998226,1.12715292
5.911252174,-0.4857273102,2.937809944,3.91611433
5.921252174,-1.08366251,2.235842228,6.235832214
5.931252174,-1.063023567,3.016240597,7.50106287
5.94125214,-1.03321743,4.475981236,8.176301003
5.951252206,-1.516518593,5.275997162,8.056576729
5.961252206,-1.88152647,5.522675991,7.852846146
5.971252206,-1.930742979,5.510624886,7.137571335
5.981252206,-1.291823626,5.197881699,6.297660828
5.991252172,-1.110219002,5.436731339,4.381017685
6.001252205,-1.538529396,4.319592476,4.050401688
6.011252205,-1.809787989,2.785545111,3.689548492
6.021252205,-1.83141923,2.317499161,2.453491211
6.031252171,-1.173368692,2.481386423,1.040596008
6.041252171,-0.5047693253,2.68399334,-0.1628446579
6.051252204,0.06477165222,3.159034252,-1.100228786
6.061252204,0.3225054741,2.698028803,-1.834034443
6.071252237,0.3870780468,2.055684805,-2.376402855
6.081252237,0.5863170624,1.748711586,-2.828298569
6.091252203,0.8012669086,1.534216166,-3.682012558
6.101252203,0.5259027481,1.232751608,-4.695517063
6.111252236,-0.6355502605,0.8206293583,-5.091680527
6.121252236,-1.298167229,-0.1476089954,-5.080848694
6.131252236,-1.738108158,-1.102692604,-5.210431099
6.141252202,-2.500602245,-2.261990547,-5.765318394
6.151252235,-2.473177195,-2.16918087,-6.270138264
6.161252268,-2.130689859,-1.960164428,-5.84924221
6.171252268,-2.175308466,-2.184830666,-6.014993668
6.181252268,-2.309015036,-2.18282032,-6.02541256
6.191252268,-2.96614337,-2.33088851,-5.283011913
6.201252234,-3.510668993,-2.423625946,-4.002691746
6.2112522,-4.0197649,-2.021378517,-2.633944511
6.221252233,-4.16027832,-1.385521889,-1.331913471
6.231252233,-4.206956863,-0.8555271626,-0.3673830032
6.241252233,-3.877557039,0.1083762646,-0.3291063309
6.251252166,-3.906445503,0.6773834229,-0.7971897125
6.261252199,-3.610772133,1.550397873,-1.465172768
6.271252232,-3.433950186,1.723255634,-1.142900467
6.281252198,-3.375573874,1.406843662,0.2294607162
6.291252198,-3.275467396,0.6324658394,2.51091671
6.301252164,-3.188425303,0.2150707245,3.355775833
6.311252197,-3.24161768,-0.016477108,3.840000153
6.321252197,-3.203735828,0.3940849304,3.5812006
6.331252197,-3.180817127,1.4200387,2.556105614
6.341252163,-2.691627502,2.666121483,1.385293007
6.351252129,-2.522855282,3.958339214,0.3990898132
6.361252129,-2.900735855,4.577250957,0.5554027557
6.371252129,-3.335475206,4.107039928,1.254083633
6.381252162,-3.360192299,2.891661644,2.588301659
6.391252162,-3.323577404,1.618946075,3.05059433
6.401252128,-3.08547163,0.5113325119,3.234645844
6.411252094,-2.0318501,-0.6402742863,3.303619385
6.421252127,-1.380995989,-1.298931599,2.955271721
6.431252127,-0.9188094139,-1.5084548,2.705843925
6.441252127,-0.2382911444,-1.865789413,2.062720299
6.451252127,0.3153402805,-1.865632176,1.390505791
6.461252127,0.8850421309,-1.796047926,0.6620111465
6.47125216,1.46561408,-1.771752,-0.11810112
6.48125216,1.923646688,-1.974463224,-0.962846756
6.491252193,2.204455853,-2.353495598,-1.594642162
6.501252193,2.142730474,-2.811585426,-1.743171215
6.511252193,1.984616637,-3.727302313,-1.453682899
6.521252159,1.915566564,-4.220826149,-1.155112267
6.531252225,2.092228174,-4.762405396,-1.651679516
6.541252225,2.265175581,-4.810133934,-1.551390648
6.551252225,2.647986174,-4.571948051,-1.618438721
6.561252191,3.192950726,-4.366501331,-1.724297523
6.571252191,3.303266764,-3.946889877,-1.396550179
6.581252224,3.41732192,-3.442802429,-2.484405518
6.591252224,3.076440573,-2.892015934,-3.364472866
6.601252224,2.50227046,-2.57699728,-3.318900585
6.61125219,2.392785788,-2.738137007,-2.200784206
6.621252223,2.302620649,-2.982970953,-1.324761391
6.631252256,1.973027229,-2.895282745,-0.9446959496
6.641252256,2.152429819,-2.423353195,-0.958193779
6.651252256,2.543802023,-1.571216583,-1.339522839
6.661252256,2.423871279,-0.137840271,-2.079174042
6.671252222,2.248330832,1.234584808,-2.79380703
6.681252222,1.852109671,2.505274773,-2.859199047
6.691252255,1.120699286,3.45179224,-2.235363483
6.701252255,0.6458184719,3.84360981,-1.292803764
6.711252255,-0.1564013958,3.937709332,-0.5011644363
6.721252221,-1.148110867,4.035330772,-0.02776813507
6.731252254,-1.803067923,4.380653381,0.1326904297
6.741252287,-2.443643093,5.017979622,-0.03808307648
6.751252253,-2.815379143,5.680087566,-0.6806116104
6.761252219,-2.357006788,6.227294445,-1.337623119
6.771252185,-1.800562382,6.294940472,-0.9289150238
6.781252218,-1.76396966,5.248858929,1.35379982
6.791252184,-1.686875463,3.617708683,3.320019722
6.801252184,-1.71519053,2.236158371,4.580986977
6.811252184,-1.949048758,1.283983231,5.805395126
6.821252184,-2.214563608,0.4417095184,6.793948174
6.831252117,-2.47595048,0.1146121025,6.343109131
6.84125215,-2.587239504,0.2490279675,4.813673019
6.85125215,-2.169268608,0.7993140221,2.554922104
6.86125215,-1.407525659,1.47146821,0.2515573502
6.871252116,-0.4285533428,2.173602819,-2.262440205
6.881252082,0.4139122963,2.656217098,-4.434143543
6.891252115,0.6160560846,2.630063057,-5.494427204
6.901252115,0.008998930454,1.374256611,-5.666143417
6.911252115,0.9555702209,2.068065166,-1.901976109
6.921252081,-0.03075873852,0.7284522057,-3.181330204
6.931252081,0.1852625012,-1.357317209,-3.981513023
6.941252114,-2.774007559,-2.79785347,-4.614465714
6.951252114,-3.959358692,-4.855003357,-5.534567356
6.961252114,-4.343363285,-5.50562191,-4.300271034
6.971252114,-4.849790096,-5.248947144,-3.317175388
6.98125208,-5.11315155,-5.236571312,-3.781585693
6.991252046,-4.593991756,-4.670132637,-4.805519104
7.001252079,-4.029203415,-4.904896259,-5.78788805
7.011252079,-2.564298391,-4.070914745,-7.036892891
7.021252079,-3.149845839,-4.029542446,-7.549440384
7.031252045,-3.642213345,-4.114188671,-6.883981705
7.041252045,-5.077473164,-3.26717639,-2.63124609
7.051252078,-4.077968597,-2.372717381,-0.7745661736
7.061252078,-3.533834934,-1.372048616,-3.464375019
7.071252078,-3.284327507,-0.2160205841,-4.154913425
7.081252044,-3.325827599,-0.1601886749,-1.802322865
7.091252077,-2.731506348,-0.0002927780151,0.2829933167
7.101252077,-2.224366188,0.3606381416,1.427323341
7.111252077,-2.839272022,0.6900787354,2.984496117
7.121252077,-3.538099766,0.5979557037,3.875715256
7.131252077,-2.227360725,2.309488773,4.439888954
7.141252077,-0.4517531395,4.227661133,3.843543053
7.151252077,0.2809279561,5.617099285,4.084428787
7.161252043,0.2095811367,5.651272774,4.691115379
7.171252009,-0.1749822497,5.560940742,4.509293556
7.181251975,-0.6960538626,5.819426537,5.012366295
7.191251941,-1.188346624,5.454416275,5.585309982
7.201252007,-1.215462804,4.789371014,6.328310013
7.211252007,-1.626309276,3.54222393,6.284810066
7.221252007,-1.166796684,2.692717552,6.206118584
7.231251973,-0.4394575357,1.914081573,5.775681496
7.241251939,0.7610452175,1.199022293,4.843952179
7.251251972,2.127791643,0.6624960899,3.175733566
7.261251972,3.240849495,0.2983441353,1.560295105
7.271251972,4.05354023,-0.1149029732,-0.003437995911
7.281251972,4.618452549,-0.559114933,-1.872709274
7.291251972,4.855607986,-1.20381999,-3.796726227
7.301251938,4.880024433,-1.551448822,-4.525682449
7.311251971,4.612615585,-2.077235222,-5.296114922
7.321251971,4.45200634,-2.730899572,-6.097045422
7.331251971,4.022886753,-3.067574501,-6.209637642
7.341251937,4.20725584,-3.589899778,-6.410439014
7.351251937,3.79975009,-4.131883144,-6.068301201
7.36125197,2.628422976,-4.614504337,-5.284071445
7.37125197,4.128889084,-4.61177063,-6.461236954
7.38125197,3.58285141,-4.78172493,-6.301336288
7.391251936,4.084286213,-4.590808392,-6.379933357
7.401251969,4.040825844,-4.109832764,-5.893064022
7.411252002,4.113806725,-3.104419708,-5.611281395
7.421252002,3.834544897,-2.358487129,-5.035700798
7.431252002,4.212716103,-1.344994545,-4.486777782
7.441251968,4.865842819,-0.1105470657,-3.91921854
7.451252001,5.379662991,1.019698143,-2.710072994
7.461252034,5.819131851,1.905201435,-1.678915024
7.471252067,5.523656845,2.199470043,0.5765457153
7.4812521,5.19459486,1.872704983,2.790611267
7.4912521,4.420356274,1.01283884,4.957802773
7.501252033,3.284574747,0.2060856819,7.44362545
7.511252066,2.568131924,0.09235906601,8.927607536
7.521252099,1.78425622,0.3751235008,9.61327076
7.531252099,0.7816232443,1.217581749,9.162339211
7.541252099,-0.1866905242,2.489144802,8.197136879
7.551252065,-1.019188881,3.568550587,5.372567177
7.561252098,-2.38000679,5.362174511,3.624677658
7.571252098,-2.715236902,5.81839323,4.151818275
7.581252098,-2.883777142,5.307839394,4.535668373
7.591252098,-4.088691235,3.731416702,4.5190382
7.601252098,-4.955934525,1.453044891,4.888590813
7.611252064,-5.894258976,0.2136130333,4.752140045
7.621252097,-6.71168375,-0.3621273041,4.089221954
7.63125213,-7.189987183,-0.5828857422,2.599340439
7.64125213,-7.162684917,-0.5858325958,0.458937645
7.651252096,-7.101928711,-0.5501623154,-2.297029018
7.661252062,-6.136595249,-0.0281457901,-4.719303131
7.671252095,-5.433335781,0.1317405701,-5.446772099
7.681252095,-5.284542084,-0.4865231514,-6.098292351
7.691252095,-5.27093792,-1.155817986,-6.460780621
7.701252061,-5.184683323,-1.647404909,-6.666670322
7.711252061,-4.894658566,-2.677202702,-6.135242462
7.721252094,-4.945338726,-3.39320612,-5.965456963
7.731252094,-5.147185802,-3.442168236,-5.506436348
7.741252094,-5.315676212,-3.968703985,-5.920761108
7.75125206,-5.151715279,-3.654298306,-5.95666647
7.761252093,-5.250015259,-3.613539219,-4.370929241
7.771252126,-4.960379601,-3.761791706,-6.581632614
7.781252126,-4.716145515,-3.021429539,-6.42711544
7.791252159,-4.386182785,-2.40534544,-5.731414795
7.801252159,-5.233985424,-2.054764986,-5.371043682
7.811252125,-5.321283817,-2.290507555,-4.774544716
7.821252125,-5.542644978,-1.881005049,-3.686364174
7.831252158,-5.304286003,-1.616975069,-2.590602875
7.841252158,-4.890215874,-1.044600248,-1.350631714
7.851252158,-4.483757019,-0.5582547188,-0.4372119904
7.861252124,-4.609920979,-0.1294350624,0.5663347244
7.871252157,-4.843868732,0.03734636307,1.950951576
7.88125219,-4.515907764,0.285721302,3.314692497
7.89125219,-4.905161381,0.1699886322,4.747495651
7.90125219,-4.001946926,0.331923008,5.919380188
7.911252223,-2.816478491,0.09827566147,7.144374847
7.921252189,-2.285668373,0.5940074921,7.132252693
7.931252189,-1.258605838,3.216791153,6.722294807
7.941252222,-0.3123194873,4.32435894,6.10718441
7.951252222,-0.4612009823,4.95912075,5.655433655
7.961252222,-0.6551735401,5.211504936,5.287549019
7.971252188,-1.65278101,4.961122036,5.463061333
7.981252221,-2.037382841,4.074092865,5.658315659
7.991252254,-2.271689177,3.360419273,6.505969048
8.001252254,-1.541721106,2.958068848,6.172904968
8.01125222,-1.557461977,1.361695766,5.486225128
8.021252186,0.964746356,1.393399477,3.723694801
8.031252219,2.518177271,1.251272678,3.721104622
8.041252219,3.446542263,0.3553135395,0.9205121994
8.051252219,4.255589008,0.1886806488,-0.3471021652
8.061252185,5.458153725,-0.8823027611,-1.792444229
8.071252151,5.322278976,-1.189350367,-3.035131454
8.081252151,6.067648888,-1.641098261,-4.222471237
8.091252151,6.62849617,-2.536717653,-4.866941452
8.101252151,6.633270264,-3.132548809,-5.087315083
8.111252151,6.439391613,-3.466635227,-5.197227001
8.121252117,6.707014084,-3.73241806,-5.218029022
8.131252083,6.475831032,-3.563449383,-5.379744053
8.141252116,5.300508022,-3.662802219,-6.103591919
8.151252116,6.020157337,-3.610671759,-6.756527901
8.161252082,5.762465477,-3.597899914,-7.249217987
8.171252015,5.312997341,-3.500163317,-7.881569386
8.181251981,5.067960739,-3.280439854,-7.123660088
8.191252014,4.575170994,-3.172097683,-6.454063416
8.201252014,4.955705166,-2.612280846,-5.691682339
8.21125198,5.345199108,-2.157486916,-3.959221363
8.22125198,5.409992695,-1.619334221,-2.67905426
8.231251946,5.510004044,-0.8667914867,-1.705856323
8.241251912,5.665288925,0.1853773594,-0.4632663727
8.251251945,5.784430027,0.9705560207,1.185707092
8.261251945,5.478314877,1.627560139,2.531840324
8.271251945,5.33200264,1.946995258,4.610310555
8.281251911,3.53063488,0.4591321945,7.022087097
8.291251911,1.470014811,-0.8724484444,9.289235115
8.301251944,1.029612422,-0.7459867001,10.19373703
8.311251944,0.9542695284,-0.5201640129,10.70842934
8.321251944,-1.095672727,0.4551706314,9.662442207
8.33125191,-0.7053675652,2.169575214,8.500893593
8.341251943,-0.357047528,3.631141186,7.568493843
8.351251943,-0.9638980031,3.945538044,6.722710609
8.361251943,-2.193774939,3.693426609,5.340589523
8.371251943,-3.741031408,2.695550442,4.272814751
8.381251943,-4.874837875,1.745437145,4.457418442
8.391251909,-5.163274765,0.8053255081,4.236484528
8.401251975,-5.910139561,0.3246769905,3.618566513
8.411252008,-5.972838402,0.09985351562,2.665106773
8.421252008,-5.894444466,0.01163554192,1.379859924
8.431252008,-5.723129749,-0.007970094681,-0.1293506622
8.441251974,-5.895336151,-0.08352041245,-1.444582462
8.45125204,-5.83275795,-0.1478402615,-2.044127464
8.461252073,-5.815460682,-0.141163826,-2.221438885
8.471252106,-6.165635586,-0.685600996,-4.648377419
8.481252106,-6.244328976,-1.107322693,-5.200814724
8.491252072,-6.027871609,-1.585862875,-5.571229935
8.501252105,-6.173732281,-2.071712971,-5.755759239
8.511252105,-5.670889378,-2.195669889,-5.712552071
8.521252105,-5.185377598,-2.558632612,-6.099247932
8.531252105,-4.608168125,-2.925841808,-6.934765816
8.541252105,-4.321625233,-3.126266718,-7.904564381
8.551252071,-4.732999802,-3.192436457,-8.357769012
8.561252104,-4.665699005,-3.300544262,-9.143279076
8.571252104,-4.725592613,-4.875307083,-10.16250801
8.581252104,-4.874599934,-1.817139864,-8.906837463
8.59125207,-3.278783321,-0.8411262035,-6.652333736
8.60125207,-3.239234686,-1.34299469,-6.381005764
8.611252103,-4.210958958,-1.644173384,-6.43674612
8.621252103,-4.491339684,-0.8185830116,-4.70011425
8.631252103,-4.895774841,-0.1250557899,-1.081609249
8.641252069,-4.819813251,-0.08490943909,0.001998901367
8.651252102,-5.830098152,0.1077427864,1.308558464
8.661252135,-6.996115685,-0.2998964787,2.391633987
8.671252135,-8.743260384,-0.786724329,5.06755352
8.681252135,-8.326745033,-1.593340158,7.997776031
8.691252168,-7.433673382,-2.181975842,9.47550106
8.701252134,-5.997332096,-2.828843117,9.698245049
8.7112521,-4.940639496,-2.071984529,9.849634171
8.7212521,-3.926313877,-0.6051199436,8.467215538
8.7312521,-2.697631598,1.158968925,6.634783745
8.7412521,-1.504278541,2.615705013,5.401292801
8.751252033,-0.8281542063,3.471543789,5.26668644
8.761252066,-0.5682977438,3.29033947,5.453150749
8.771252099,-0.4800986052,2.846043587,5.568735123
8.781252132,-0.4399834871,1.761554718,5.683511734
8.791252132,0.2031707764,0.9574379921,5.545986176
8.801252098,1.391582251,0.3704047203,4.785168648
8.811252131,2.550947428,0.05828928947,3.76420784
8.821252131,3.677512407,0.02018356323,2.46868515
8.831252131,4.731985092,-0.1008358002,0.7529115677
8.841252131,5.604293823,-0.334758997,-1.06708622
8.851252164,6.16272068,-0.6301681995,-2.671844959
8.861252164,6.692937851,-0.9860286713,-3.873513222
8.871252164,6.971026897,-1.56334734,-4.718490601
8.881252164,7.228645325,-2.195796967,-5.387318611
8.891252164,7.414446831,-3.092283726,-5.480705738
8.90125213,7.29789257,-3.776867628,-5.316602707
8.911252096,7.309752464,-4.13704586,-5.428471565
8.921252129,7.276906967,-4.393424988,-5.401733398
8.931252129,7.337677956,-4.438781261,-5.001423836
8.941252129,7.487865448,-4.385436058,-4.845072269
8.951252095,7.546855927,-4.157567501,-4.870755196
8.961252095,7.681488991,-3.620826721,-5.182097912
8.971252128,7.327636242,-2.922086,-4.828679562
8.981252128,6.424987316,-2.538061142,-3.657789707
8.991252094,5.763172626,-2.072411537,-2.137092113
9.00125206,5.684866905,-1.56733346,-0.312502861
9.011252093,5.529461384,-1.200715542,0.8906402588
9.021252126,5.719624043,-0.3296177387,1.650058746
9.031252126,6.127802372,0.8649287224,2.502820015
9.041252126,5.533789635,0.8905925751,3.513215065
9.051252126,5.093657017,0.6569776535,5.279613495
9.061252092,3.465578556,-0.1157200336,7.427560806
9.071252092,1.295559764,-1.029652834,9.571087837
9.081252092,-3.408047199,-3.060342789,9.386342049
9.091252092,-3.090022087,-2.447408438,12.68591213
9.101252092,-4.604961395,-1.332213402,10.79087448
9.111252058,-4.694165707,0.5377006531,8.850403786
9.121252124,-4.009235382,2.979055405,6.488663673
9.131252157,-3.419641018,4.295327663,5.633180618
9.141252157,-3.025299072,4.568285942,5.549547195
9.151252123,-3.521572351,3.658346176,5.50201416
9.161252089,-4.477137566,2.468666792,5.384583473
9.171252055,-5.394479275,1.378594398,5.389941216
9.181252055,-6.104009151,0.8782374859,4.336705208
9.191252088,-6.326128483,0.8884160519,2.915511131
9.201252088,-5.831637383,1.431714773,0.05034160614
9.211252088,-5.515715599,1.636147499,-2.294990063
9.221252021,-5.385562897,1.532873392,-4.560732365
9.231252054,-5.157618523,0.9673314095,-5.749042511
9.241252087,-6.164419174,-0.02355790138,-5.401805878
9.251252087,-6.005161762,0.04460525513,-5.106461525
9.261252053,-5.231502056,-0.1453647614,-6.109641075
9.271252019,-5.081936836,-2.299633503,-7.556373596
9.281252052,-5.211226463,-1.765097976,-6.405866623
9.291252052,-5.591261864,-2.733966112,-7.626358509
9.301252052,-5.210882664,-3.315491676,-8.229356766
9.311252018,-4.594267845,-3.932683706,-9.553557396
9.321252018,-4.44356823,-4.329027653,-9.781497002
9.331252051,-4.982207298,-4.752050877,-9.026657104
9.341252051,-4.981682301,-4.476217747,-8.077811241
9.351252051,-4.415564537,-2.864939928,-6.638777256
9.361252051,-4.569356918,-3.632674456,-6.169987679
9.371252017,-5.399776459,-3.800358534,-5.693939209
9.381251983,-6.274959087,-3.616675138,-5.188426018
9.391252016,-6.51603651,-3.050392151,-4.268065929
9.401252016,-6.041330814,-1.718968153,-2.883460045
9.411252016,-5.168854237,-0.7431576252,-1.875265121
9.421251949,-4.152723312,0.05253314972,-0.6160945892
9.431251949,-3.410015345,0.5180110931,1.292782784
9.441251982,-3.033754349,0.9591550827,3.671590805
9.451251982,-3.263954163,0.9425988197,5.989109993
9.461251982,-3.610994577,0.5532612801,7.781936646
9.471252015,-3.431787491,0.2282390594,10.10961914
9.481252048,-2.631231546,1.038805008,10.95795345
9.491252048,-1.767156482,1.612213612,9.841942787
9.501252048,-0.545183897,4.351593494,9.546426773
9.511252048,0.1732680202,4.683640957,7.522963524
9.521252081,0.6971336007,5.169898033,5.756389618
9.531252047,0.6785025597,5.353272438,5.880272865
9.541252047,0.2404156923,4.72165966,5.796537399
9.55125208,0.2948942184,3.766082287,5.310804367
9.56125208,0.3311520815,2.939928055,4.793024063
9.57125208,0.6248358488,2.25929451,3.824290276
9.581252046,1.295088649,1.597727299,2.308270454
9.591252079,1.952741385,0.9975867271,0.9135484695
9.601252079,2.974393368,0.5522179604,-0.514746666
9.611252079,3.869806767,-0.02453684807,-1.752782822
9.621252045,4.680530548,-0.7441740036,-2.928882122
9.631252011,5.343690395,-1.382306814,-3.730157852
9.641252011,5.632983208,-2.090986729,-4.136406898
9.651252011,5.917830467,-3.343775511,-4.834602833
9.661252044,5.782514572,-4.060854435,-5.123872757
9.671252044,5.739637375,-4.377090454,-5.227531433
9.681252044,5.514061928,-4.608859062,-5.6525383
9.69125201,5.188419819,-4.905470848,-5.82775116
9.701252043,5.131612778,-4.772339821,-5.972270012
9.711252043,4.801812172,-4.764787674,-6.267359734
9.721252043,4.733844757,-4.771382332,-6.498605728
9.731252009,5.118282795,-4.547781944,-6.751627922
9.741251975,5.100585461,-4.234258652,-6.207594872
9.751252008,5.148297787,-4.002561569,-5.657884598
9.761252008,5.120134354,-3.588088274,-4.99451828
9.771252008,5.035935402,-2.978361607,-3.923828602
9.781251974,4.900537491,-2.733951092,-2.929765701
9.791251907,4.682529449,-2.26702404,-1.61107111
9.801251907,4.470861435,-1.187869549,-0.1836194992
9.81125194,4.833665848,-0.3762178421,0.3648672104
9.82125194,5.14649725,0.9176363945,1.182197571
9.83125194,3.831160545,0.3759126663,-0.1473169327
9.841251906,4.022968769,0.3524327278,4.119065285
9.851251906,2.449982882,0.0647559166,5.796366692
9.861251939,0.9199049473,-0.1752202511,8.46400547
9.871251939,-0.1572443247,0.1428995132,9.679009438
9.881251939,-1.468687177,0.6280679703,9.591362953
9.891251905,-2.692453623,1.569229126,9.028951645
9.901251938,-3.188930273,2.949387074,8.347620964
9.911251971,-3.025017738,4.241294861,7.596515656
9.921251971,-2.619989634,4.655664921,7.047177315
9.931251971,-2.613746166,4.090341568,6.745850563
9.941251971,-3.195754766,3.168605566,6.581597328
9.951251971,-3.927872658,2.20546627,6.601216316
9.961251971,-4.569807053,1.429592609,5.548698425
9.971252004,-4.935834885,0.8342392445,4.101466179
9.981252004,-4.98846674,0.6405675411,2.838569641
9.991252004,-4.513901234,0.5935192108,-0.2112388611
10.00125197,-4.343348503,0.503757,-1.571689129
10.011252,-3.920861244,0.474748373,-1.724894524
10.02125204,-2.021566391,0.2407763004,-2.125273228
10.03125204,-3.431864977,1.339717627,-3.739748478
10.04125204,-3.015357733,1.792666912,-5.386196136
10.051252,-2.63735342,1.812832832,-6.551403999
10.06125204,-1.946758509,1.460346699,-6.926106453
10.07125204,-1.933621407,0.8315210342,-6.516040802
10.08125204,-2.310632229,-0.09385204315,-6.158192635
10.09125207,-2.628162384,-0.9379270077,-6.008184433
10.10125207,-2.868844509,-1.790073752,-6.147130966
10.11125203,-3.115121126,-2.364407301,-6.536798954
10.12125207,-3.424842834,-2.699026585,-6.936923027
10.1312521,-3.58813858,-2.768991947,-7.214979172
10.1412521,-3.836459398,-2.490912914,-7.420630455
10.15125207,-3.969474792,-2.054421425,-7.270042419
10.161252,-4.020880699,-1.647182822,-6.963794708
10.171252,-4.011978149,-1.222672224,-6.308024406
10.181252,-4.023579597,-0.623213768,-5.365668297
10.191252,-4.080629349,0.03586053848,-3.923513889
10.20125196,-3.974486351,0.7536468506,-2.032446861
10.21125196,-3.546339035,1.23093152,-1.02806282
10.221252,-3.281850338,1.683055878,-0.4989490509
10.231252,-3.187900543,1.918999195,0.06425857544
10.241252,-3.217141628,1.823240519,1.26504612
10.251252,-3.256947756,1.419884682,2.62949276
10.261252,-3.30718565,0.8645472527,3.958555222
10.271252,-3.22505188,0.6552143097,5.00702858
10.281252,-3.225156069,0.9308886528,5.26235199
10.291252,-3.156609058,1.754458904,4.549275398
10.301252,-2.670803308,2.975842953,3.266891479
10.31125193,-2.138374329,3.962571144,2.641824722
10.32125193,-1.594343662,4.454698563,2.306307793
10.33125196,-1.207241416,4.166857719,2.589818001
10.34125196,-1.221935272,3.601871014,3.22546196
10.35125196,-1.440374136,2.002897024,4.781371117
10.36125193,-1.538600206,0.4064118862,6.082040787
10.37125196,-1.454877138,-0.953701973,6.682588577
10.381252,-1.059510708,-2.173751354,6.545723915
10.391252,-0.6186705828,-2.70896244,5.698412895
10.401252,-0.1075460613,-2.791278362,4.462436676
10.411252,0.4672710001,-2.514014959,3.140365601
10.421252,1.311436534,-2.211033106,1.635262489
10.431252,1.988090754,-2.16431427,0.3981189728
10.441252,2.634135008,-2.307009697,-0.5616846085
10.451252,2.967752695,-2.55428195,-1.336226463
10.46125203,3.10571909,-3.049633503,-2.008248806
10.47125203,3.098809481,-3.561357498,-2.403277397
10.48125206,3.032745123,-3.98545146,-2.73809576
10.4912521,3.163274288,-4.390518188,-3.326328278
10.5012521,3.499588013,-4.60621357,-3.958600998
10.51125206,3.878223419,-4.593695641,-4.441373825
10.52125203,4.368345261,-4.537106991,-4.836981773
10.53125206,4.853488922,-4.18504715,-5.327640533
10.54125206,5.048639774,-3.974243641,-5.568577766
10.55125206,4.950746536,-3.789178371,-5.421964169
10.56125203,4.391683578,-3.770497799,-4.607682228
10.57125199,3.934684992,-4.240558624,-3.800082207
10.58125199,3.397589684,-4.614786148,-3.275677204
10.59125203,2.915805817,-4.452605247,-2.931143761
10.60125202,2.601720095,-3.640922308,-3.057722569
10.61125206,2.486991644,-2.580673456,-3.159132004
10.62125202,2.364359856,-1.290841103,-2.592617035
10.63125199,2.422357559,-0.1508891582,-1.902341366
10.64125202,2.101430416,0.8010630608,-0.7593746185
10.65125202,1.485793591,1.140787363,1.130460739
10.66125202,0.831871748,0.9465186596,2.763301849
10.67125202,-0.197930038,0.8609526157,3.668708801
10.68125202,-0.8968647718,0.9777607918,3.864221573
10.69125206,-1.88059926,1.647725582,4.231708527
10.70125206,-2.535275936,2.715856075,4.455872536
10.71125206,-2.683076382,4.090310097,3.844712257
10.72125202,-2.227431774,5.439731121,2.80486393
10.73125202,-1.050264239,6.295628548,1.835798264
10.74125206,0.1299400181,6.632201195,1.612091064
10.75125206,0.6707153916,6.152562141,2.812794685
10.76125206,0.782581985,4.600270748,5.095621109
10.77125206,0.2930245399,2.342578888,6.307492256
10.78125202,-0.6225684881,0.8986754417,6.917006493
10.79125202,-1.425415993,0.1197352409,6.612194061
10.80125205,-2.18453145,0.09355735779,5.309267998
10.81125205,-2.657395363,0.5444436073,3.382127762
10.82125205,-2.9901824,1.092923164,1.735359192
10.83125202,-3.348177433,2.051660299,-1.107851982
10.84125205,-3.462607861,2.420733929,-2.996973515
10.85125205,-3.522791147,2.421000719,-4.362467289
10.86125205,-3.700102806,2.092324972,-5.234629154
10.87125205,-3.953155041,1.556553125,-5.580027103
10.88125205,-4.154577255,1.012732506,-5.602119923
10.89125202,-4.62808609,-0.0467903614,-5.573219299
10.90125205,-5.295724869,-0.8262346983,-4.8796134
10.91125209,-5.833257198,-1.77416563,-4.262756348
10.92125208,-6.22667551,-2.554687023,-4.172742367
10.93125208,-6.330312252,-2.692568064,-4.313633919
10.94125205,-6.241818428,-2.331677437,-4.541728973
10.95125212,-6.424847126,-1.582663536,-4.537099838
10.96125212,-6.442085743,-1.165022254,-4.246076107
10.97125208,-6.430989742,-1.002874613,-4.018237591
10.98125205,-6.357467175,-0.5628619194,-3.13967514
10.99125202,-6.462901115,0.08170962334,-0.5552530289
11.00125205,-6.330024719,0.08708524704,1.651158333
11.01125205,-6.235678673,-0.2745716572,3.487395287
11.02125205,-5.761919022,-0.7130935192,4.805896759
11.03125201,-5.303388596,-0.8491678238,5.906755447
11.04125198,-4.89474678,-0.8372769356,6.400382996
11.05125198,-4.025447369,-0.4712529182,6.576361656
11.06125201,-3.2829566,-0.3289475441,6.321387291
11.07125201,-2.871688843,-0.05348873138,5.687861443
11.08125201,-2.691600323,0.6594457626,4.319105148
11.09125198,-2.676174164,1.571267128,2.885591507
11.10125198,-2.613574505,2.804913998,1.323636055
11.11125201,-2.395491362,3.716822624,0.1278924942
11.12125201,-2.16462326,4.126889229,-0.2311868668
11.13125201,-2.060848713,3.982666016,0.167427063
11.14125198,-2.160366297,2.406457901,1.535164833
11.15125201,-2.129356146,1.303142548,2.031543732
11.16125201,-1.970804214,-0.6464080811,2.483216286
11.17125198,-1.369461298,-2.017910957,2.504034996
11.18125208,-0.5779979825,-2.67281723,2.293548584
11.19125204,0.4133320153,-2.970708847,1.970982552
11.20125204,1.54315877,-3.076326847,1.659759521
11.21125201,2.284501314,-3.128144264,1.250926018
11.22125201,2.910935879,-3.300144434,0.5263872147
11.23125201,3.549421787,-3.679798841,-0.4097595215
11.24125201,4.141145229,-4.101424217,-1.158088684
11.25125198,4.697939873,-4.596097946,-1.75582552
11.26125201,4.948191166,-5.084535599,-2.007306576
11.27125204,4.903645515,-5.305064201,-1.987060547
11.28125207,4.895340443,-5.699257374,-2.11992979
11.29125207,4.996155739,-5.855508327,-2.463210583
11.30125204,4.915545464,-5.802384853,-2.577580929
11.31125207,4.935213566,-5.540466309,-2.749364376
11.32125207,5.165624619,-5.191674709,-3.361982822
11.33125207,5.384262562,-4.673488617,-4.30107832
11.34125207,5.46807003,-4.12949419,-5.016031742
11.35125207,5.341961384,-3.492941141,-5.369615555
11.36125204,4.903794289,-2.792123795,-5.037378788
11.37125207,4.596138,-2.510016203,-4.051654816
11.38125211,3.89904356,-2.177984715,-2.171961308
11.39125211,2.756797314,-1.595031977,-0.2482852936
11.40125207,1.996980309,-1.133411646,0.5105495453
11.41125204,1.474059343,-0.6632165909,0.7401237488
11.42125207,1.227037549,-0.06555390358,1.170694351
11.43125207,1.225741386,0.288418293,1.907912254
11.44125207,1.208990812,0.6754364967,2.794919014
11.45125204,1.199545503,1.218464375,3.72602272
11.46125207,0.7806159854,1.921500206,4.34540081
11.47125214,0.3629871011,2.470767975,4.468347549
11.48125204,-0.4463533163,3.668663025,4.391493797
11.49125207,-0.8351707458,4.621863365,3.821586609
11.50125203,-0.9776314497,5.412732601,3.03275013
11.51125203,-0.8662600517,5.691830635,2.381836891
11.52125203,-0.5268791318,5.451140404,1.757805824
11.53125207,-0.05912971497,4.722696781,1.506146431
11.54125207,0.1778404713,3.349633455,2.527029037
11.55125203,-0.09723526239,2.027763605,3.949075699
11.561252,-0.5599426031,0.5979781151,5.404566765
11.571252,-1.294153214,-0.5634591579,6.246182442
11.581252,-1.906508923,-1.19680953,5.840877533
11.591252,-2.330102444,-0.949565649,4.537448883
11.601252,-1.981983542,1.365962744,1.986722946
11.61125197,-1.121712208,2.434407711,0.3087377548
11.621252,-0.8215309381,3.079941511,-1.095637321
11.63125203,-0.9474239349,3.204180241,-2.466545105
11.64125203,-1.346148252,2.548126936,-3.639199734
11.65125203,-1.871202469,1.627761602,-4.230667591
11.66125203,-2.351214886,0.829179287,-4.557862759
11.67127414,-3.329013586,-0.7289278507,-4.860115051
11.6812741,-4.066324711,-1.545922041,-5.23154974
11.69127411,-4.545370579,-2.337568283,-5.343169212
11.70127411,-4.747427464,-3.013385057,-5.503558636
11.71127411,-4.695627689,-3.244980097,-6.100365639
11.72127407,-4.660060883,-2.980350971,-6.456977844
11.7312741,-4.132475853,-2.445314884,-6.421172142
11.74127414,-3.702649117,-1.891356349,-6.267880917
11.75127414,-3.506717205,-1.394995928,-5.889849663
11.7612741,-3.487210751,-1.001916885,-4.910914898
11.77127407,-3.773008585,-0.9619746208,-3.104931831
11.7812741,-4.316005707,-1.089673281,-1.916060448
11.7912741,-5.318785667,-0.8087608814,-1.569607258
11.8012741,-5.699309826,-0.3503527641,-1.803337097
11.8112741,-5.630976677,0.957136631,-2.572532177
11.8212741,-4.761234283,2.261218548,-3.187408924
11.83127407,-4.198287964,3.331340313,-2.941702843
11.8412741,-4.019376755,4.132146358,-1.793100357
11.8512741,-3.98231101,3.942416668,0.6138949394
11.8612741,-4.204130173,3.002645969,2.859212875
11.87127407,-4.532351494,2.291081905,4.483709812
11.88127403,-5.094884396,2.513804436,4.854218483
11.89127407,-4.936493397,3.394236565,3.153126717
11.90127407,-4.436499119,4.150505066,1.980195999
11.91127407,-3.635616064,4.650129318,0.4915575981
11.92127403,-2.644495249,4.892558098,-0.2346715927
11.93127403,-1.854000092,4.534115791,0.6192307472
11.94127406,-1.16201663,3.480202675,1.882106304
11.95127407,-0.5274524689,1.697098255,3.545629501
11.96127407,0.1884326339,-0.06463623047,4.549825191
11.97127403,1.005234957,-1.681766033,4.906537533
11.98127403,1.835219622,-3.21688509,4.322674751
11.99127403,2.590141773,-4.14347887,3.209744453
12.00127406,3.184137583,-4.573992252,1.585379601
12.01127406,3.618742704,-4.647334576,0.07489490509
12.02127406,4.164247036,-4.777353764,-1.249195576
12.03127403,4.712147713,-5.158461094,-2.251388073
12.04127403,4.798204899,-5.62975502,-2.801784992
12.05127406,4.787433147,-5.859930038,-2.969714642
12.06127406,4.651683807,-6.35431385,-2.261205196
12.07127406,4.619557858,-6.729388237,-1.1113801
12.08127403,4.76884079,-6.911631107,-0.658000946
12.09127406,4.9769907,-6.84130621,-0.8888950348
12.10127406,5.119698048,-6.382817745,-1.793916225
12.11127406,5.219783306,-5.661148548,-2.913889408
12.12127406,5.367201328,-5.038223743,-3.930707455
12.13127406,5.377768517,-4.613144398,-4.308936119
12.14127403,5.480680466,-4.052254677,-4.388761997
12.15127409,5.50839901,-3.832402706,-3.955496311
12.16127413,5.419580936,-3.619803905,-3.384122372
12.17127409,5.036108017,-3.333122492,-1.824846268
12.18127406,4.499516487,-3.152381897,-0.4894399643
12.19127399,3.858146667,-2.895221472,0.593662262
12.20127402,3.488797665,-2.653162956,0.8154582977
12.21127403,3.222006559,-2.279126406,0.6101512909
12.22127399,2.902248621,-1.632980824,0.4639091492
12.23127399,2.492939711,-0.6452851295,0.3615245819
12.24127396,2.069955111,0.420853138,0.384979248
12.25127399,1.488358855,1.64756155,0.5987920761
12.26127399,0.9345679879,2.835981846,0.937163353
12.27127399,-0.03907978535,3.710045815,1.400123596
12.28127399,-1.325515628,4.486399651,1.652888298
12.29127399,-2.550329208,5.293362617,1.412185669
12.30127396,-3.27274704,5.930512428,0.9557275772
12.31127396,-3.287991285,6.102383137,0.2798099518
12.32127399,-2.758741379,5.536790371,0.07160949707
12.33127399,-2.199071884,4.327986717,0.6445598602
12.34127396,-2.049710274,2.533238888,2.266953468
12.35127396,-2.628097534,0.1855733395,5.473438263
12.36127399,-3.243189812,-1.555886507,7.617069244
12.37127399,-3.600944757,-2.557273626,8.311396599
12.38127399,-3.802036762,-2.519345284,7.768591881
12.39127395,-3.979776859,-1.540226936,6.00813961
12.40127399,-3.987499475,-0.5935248137,4.172764778
12.41127402,-3.633146286,0.8566060066,0.7313327789
12.42127402,-3.366428375,1.666737556,-1.574790478
12.43127402,-3.092519522,2.324089766,-3.62380743
12.44127405,-3.025943995,2.847078085,-5.172242641
12.45127399,-3.237207413,2.981726408,-6.231145859
12.46127399,-3.537962914,2.80156374,-6.554804802
12.47127405,-4.180532455,1.82447958,-6.550268173
12.48127408,-4.836560726,0.7049431801,-6.231956482
12.49127412,-5.728960991,-0.2737176418,-5.472410202
12.50127408,-6.459387779,-1.346726656,-4.685590267
12.51127412,-6.714303017,-2.019011497,-4.580961704
12.52127418,-6.753037453,-2.239357233,-4.646930218
12.53127418,-6.60827589,-1.745012522,-4.678791046
12.54127418,-5.982973576,-0.6794821024,-4.435967445
12.55127415,-5.61066246,0.3772461414,-3.591541767
12.56127418,-5.45773077,1.203335524,-2.772139072
12.57127418,-5.478377819,1.809972286,-1.107495308
12.58127418,-5.407059193,1.987207413,0.7041063309
12.59127418,-5.609696388,1.802886486,2.00733757
12.60127422,-5.921618938,1.419598579,2.741827965
12.61127425,-6.392229557,0.6420378685,4.527030945
12.62127425,-6.666007519,-0.4605970383,6.224437714
12.63127425,-6.867931843,-1.086246252,7.698112488
12.64127425,-6.246849537,-1.10659647,8.198803902
12.65127421,-5.348908424,-0.6531882286,8.980410576
12.66127418,-4.420680523,0.03684043884,9.068906784
12.67127421,-3.967209339,0.7112855911,8.022467613
12.68127421,-3.608391285,1.528488636,6.349571228
12.69127421,-2.876247406,2.676608086,4.282938957
12.70127418,-2.215031385,3.839888096,2.734077454
12.71127418,-1.684127331,4.456748962,1.482380867
12.72127421,-1.553585291,4.235943794,0.814250946
12.73127421,-1.550922394,3.244030952,0.6661243439
12.74127421,-1.351986885,1.87621069,0.8275794983
12.75127421,-0.9721972942,0.4258522987,1.138186455
12.76127421,-0.1337082386,-1.154000044,1.342565536
12.77127421,0.8315014839,-2.247918606,1.542291641
12.78127421,2.01748395,-3.060740471,1.405651093
12.79127421,3.302125692,-3.481429577,0.991191864
12.80127421,4.23742485,-3.685936213,0.4080600739
12.81127414,5.146511078,-3.993502617,-0.4394612312
12.82127411,5.969948292,-4.476730824,-1.33567667
12.83127408,6.465084553,-5.025533676,-1.872537613
12.84127404,6.770461559,-5.480705261,-2.328007698
12.85127404,7.024224758,-5.766463757,-2.684880733
12.86127401,7.200897217,-6.046596527,-2.644115448
12.87127408,7.345508099,-6.120117188,-2.276800156
12.88127411,7.670295715,-6.077898979,-1.802630901
12.89127411,8.042378426,-5.808404922,-1.637038708
12.90127407,8.261681557,-5.35122776,-1.743252754
12.91127407,8.354157448,-4.946397781,-2.039885521
12.92127411,8.367367744,-4.693087101,-2.487296581
12.93127411,7.910271168,-4.341469765,-2.912672043
12.94127411,7.108129501,-4.286377907,-2.723411083
12.95127411,6.649429321,-4.418523788,-2.402154922
12.96127411,6.380683899,-4.519388676,-2.297102451
12.97127407,5.31112957,-4.133156776,-1.689766407
12.98127411,4.514613628,-3.419256926,-1.32007885
12.99127414,3.978604317,-2.496185064,-1.234339714
13.00127414,3.322210073,-1.270951986,-0.5875778198
13.0112741,2.689758539,-0.3862552643,-0.1378068924
13.02127407,1.805097342,0.3308997154,0.5044775009
13.0312741,0.8616576195,0.8968615532,1.365451813
13.04127407,-0.2971401215,1.057788849,2.784628868
13.05127407,-1.512566328,1.278604984,3.349000931
13.06127404,-2.338988066,1.642442703,3.33839798
13.07127404,-3.622958899,2.640679836,3.766604424
13.08127407,-4.103732109,3.397543907,3.79520607
13.09127407,-4.365492344,4.50828886,3.481384277
13.10127407,-4.178343773,4.881585598,3.314127922
13.1112741,-4.013484955,4.7525177,3.383707047
13.1212741,-3.789900541,4.082671165,3.620256424
13.1312741,-3.495122671,2.868819475,4.267780304
13.14127417,-3.47611618,1.593000174,5.703178406
13.15127417,-3.686759949,0.2064023018,6.829621315
13.16127417,-3.944650888,-0.9795421362,6.82095623
13.1712741,-4.092237473,-1.223779202,5.878890038
13.1812741,-4.11838913,-0.8239893913,4.477998734
13.19127413,-3.908116579,0.184002161,2.242142677
13.20127413,-3.642902613,1.14068985,0.09638118744
13.2112741,-3.41044879,1.888360262,-1.948635578
13.22127403,-3.321977139,2.564668179,-4.01145792
13.23127403,-3.36012888,2.915133953,-5.572127342
13.24127403,-3.513158321,2.961607933,-6.843979836
13.25127407,-4.048246384,2.680945158,-7.386345863
13.26127407,-4.688931465,1.920986891,-7.32344532
13.27127407,-5.221873283,0.8677763939,-7.580635071
13.28127403,-5.65326786,0.2146773338,-7.905705452
13.29127403,-6.315587997,-0.5375747681,-7.664085388
13.30127407,-6.475220203,-1.051423073,-7.028417587
13.31127407,-6.596173286,-1.432295561,-5.975130558
13.32127406,-6.725605965,-1.666978955,-4.880574226
13.33127403,-6.750564098,-1.839175224,-3.527131557
13.34127406,-6.715213776,-1.914424419,-2.471445084
13.35127406,-6.571525574,-1.750506043,-1.169283867
13.36127406,-6.411695957,-1.577036023,-0.242556572
13.37127403,-6.247251987,-1.216840267,0.4541540146
13.381274,-6.066777706,-0.4223442078,1.370729446
13.391274,-6.001302719,0.5034184456,2.155412674
13.40127406,-5.537816048,1.486246586,2.797168732
13.4112741,-4.955080986,2.017704964,3.80831337
13.4212741,-4.624203682,2.169751167,5.352584839
13.4312741,-4.539367199,1.508725643,6.683085442
13.44127406,-4.283090115,0.04116535187,7.95058918
13.45127409,-4.320516109,-1.17675662,8.225212097
13.46127409,-4.594470978,-1.745798349,6.892398834
13.47127409,-4.651473045,-1.018023968,5.323947906
13.48127406,-4.308503151,-0.1432876587,3.534358978
13.49127403,-4.183011532,0.5886297226,1.909412384
13.50127406,-3.951024294,0.90402174,1.05557251
13.51127406,-3.652785301,0.8869452477,0.6080999374
13.52127406,-3.280889511,0.4617424011,0.9546070099
13.53127406,-2.518644333,-0.168241024,1.583010674
13.54127406,-1.463890791,-0.7433102131,2.371354103
13.55127403,-0.2158663273,-1.301333904,2.886926651
13.56127406,1.198779225,-1.740822554,3.025042534
13.57127406,2.347924232,-2.128432989,2.763585091
13.58127406,3.376656294,-2.520967007,2.361662865
13.59127402,4.260389328,-2.917584419,1.801269531
13.60127402,4.910687447,-3.253621578,1.209517479
13.61127406,5.637482643,-3.788217306,0.2923345566
13.62127406,6.280649185,-4.207904816,-0.5949468613
13.63127406,6.76075983,-4.575681686,-1.274283886
13.64127402,7.018445492,-4.772522926,-1.895724773
13.65127406,7.168038845,-4.925645828,-2.155418873
13.66127409,7.324571133,-5.121767998,-2.154067993
13.67127409,7.235391617,-5.353619576,-1.369138241
13.68127409,7.318043709,-5.553871155,-0.9068841934
13.69127412,7.363511086,-5.614933968,-0.963537693
13.70127406,7.426086426,-5.241078377,-1.803054333
13.71127406,7.476861954,-4.605761051,-2.995052814
13.72127409,7.428589821,-4.008928299,-4.087005615
13.73127409,7.334039688,-3.735123158,-4.454200745
13.74127409,7.008584976,-3.599690437,-4.560251713
13.75127405,6.708960533,-3.693736076,-4.325516224
13.76127409,6.111176014,-3.871000767,-3.50011158
13.77127412,5.244019032,-3.569894075,-2.775709629
13.78127412,4.459354401,-2.802644253,-2.322603226
13.79127412,4.061758041,-1.884908557,-2.304245472
13.80127409,3.740796089,-1.301382065,-1.827229023
13.81127409,3.188115835,-0.4261510372,-0.9178991318
13.82127405,2.711063623,-0.03196668625,-0.4664802551
13.83127402,1.558538437,0.4928002357,0.9318265915
13.84127402,0.5122950077,0.6585741043,1.978524208
13.85127405,-0.6199114323,0.6646735668,2.70097065
13.86127402,-1.856596947,0.7642185688,3.235551834
13.87127405,-3.137079239,1.10665822,3.763278961
13.88127405,-4.041556358,1.933825731,3.680529594
13.89127405,-4.244915485,2.891756058,3.081504822
13.90127402,-3.672868729,4.003953934,2.378270149
13.91127398,-2.891379833,5.033511162,1.79483223
13.92127402,-2.206796646,5.424053669,2.142285347
13.93127402,-1.957055569,4.274785995,3.44849205
13.94127402,-2.202388525,1.868523836,5.838521957
13.95127398,-2.800851345,0.4763228893,7.104664803
13.96127398,-3.513180017,-1.239981294,8.011213303
13.97127401,-3.983167648,-1.610102892,7.038850784
13.98127401,-4.273802757,-1.108333111,4.919739723
13.99127401,-4.344638824,-0.04572808743,2.379696846
14.00127401,-4.162990093,0.7784562111,-0.05214977264
14.01127398,-3.90826726,2.189004898,-3.407137871
14.02127395,-3.801079273,3.048889637,-5.551744461
14.03127398,-3.894805193,3.531998634,-7.347343445
14.04127401,-4.083570004,3.34826827,-7.913209915
14.05127401,-4.50880146,2.494615316,-7.554392338
14.06127398,-5.211758137,1.306206226,-6.643339157
14.07127401,-6.080757141,0.2922010422,-5.139031887
14.08127404,-6.823031425,-0.6390104294,-3.776578426
14.09127404,-7.818975449,-2.363437891,-2.162666321
14.10127404,-8.225115776,-3.132529736,-1.517983437
14.11127404,-8.394936562,-3.377123356,-1.365050316
14.12127414,-8.331303596,-3.16159606,-1.41464901
14.13127421,-7.721297264,-1.883828044,-2.001598835
14.14127421,-7.062428474,-0.8817176819,-2.225367546
14.15127418,-6.564060211,-0.1166834831,-1.780598164
14.16127418,-6.312759876,0.4055914879,-1.012167931
14.17127414,-6.318434715,0.6162593365,-0.02987384796
14.18127418,-6.236434937,0.5728332996,1.003733635
14.19127421,-6.430457115,0.2426130772,2.73186779
14.20127421,-6.411543846,-0.0809044838,3.794261932
14.21127421,-5.882185936,-0.6228628159,5.005940437
14.22127417,-4.92788887,-0.6206548214,5.970933914
14.23127421,-4.09700489,-0.1602118015,6.59651947
14.24127424,-3.567251444,0.1927690506,6.753278732
14.25127424,-2.813354969,0.8774826527,6.402871132
14.26127421,-2.423379898,1.253139496,5.723392487
14.27127417,-2.091104507,1.748425961,4.599521637
14.2812742,-1.747611046,2.244409561,3.486354828
14.29127417,-1.31554389,3.101767063,1.845459938
14.30127417,-1.221195817,3.314603806,1.046650887
14.31127417,-1.282953382,2.650971413,0.9732732773
14.3212742,-1.719545007,1.33952713,1.758176804
14.3312742,-2.283720255,-0.5600595474,2.826365471
14.34127417,-2.616476059,-2.701062202,3.233215332
14.35127417,-2.147890329,-4.080014229,3.373279572
14.36127417,-1.127466917,-4.701908112,2.86729908
14.3712741,0.4193476439,-4.573661804,1.712659836
14.38127407,1.488788843,-4.136800766,0.8887195587
14.3912741,3.169478416,-3.483405352,-0.3994131088
14.4012741,4.022781372,-3.277732849,-1.233792305
14.4112741,5.173683167,-3.306354046,-2.494870186
14.42127404,5.77116394,-3.522898912,-2.896463394
14.43127404,6.362431526,-3.863724709,-3.085206509
14.44127407,6.636301041,-4.423782825,-2.970810413
14.45127407,6.972331047,-4.909647942,-2.713359833
14.46127407,7.115348339,-5.200529099,-2.423820019
14.47127407,7.219630241,-5.759879112,-2.010569572
14.48127407,7.417420864,-6.036814213,-2.08068943
14.49127407,7.68774271,-6.025767326,-2.658362865
14.50127407,7.958399296,-5.674937248,-3.47031498
14.51127407,8.295797348,-4.772819042,-4.198123455
14.52127407,8.212852478,-4.093958855,-4.780975342
14.53127403,7.688799858,-3.642167091,-4.982141972
14.54127403,6.971051216,-3.661897182,-4.804962158
14.55127407,6.227437973,-4.037984848,-3.802770138
14.56127407,5.813287735,-4.094675541,-1.897876263
14.57127407,5.474806786,-3.965806246,-0.3600082397
14.58127403,5.418855667,-3.280926466,1.605921745
14.59127407,5.36327076,-2.255804062,2.037693977
14.60127407,4.682565689,-1.349197865,1.890921593
14.61127407,3.776053429,-0.7401320934,2.540060043
14.62127403,2.758964777,-0.7820775509,3.400559425
14.631274,1.578315496,-1.083668947,4.080807686
14.64127403,0.06964981556,-1.336301804,4.845027924
14.65127403,-1.736241698,-1.406438351,5.252555847
14.66127403,-3.323321819,-1.12537694,5.244581223
14.67127403,-4.579353333,-0.2079062462,4.809762955
14.68127403,-5.335023403,1.398843527,3.482172012
14.691274,-5.501324654,2.762711763,2.545585632
14.70127403,-4.947599411,3.5042665,2.298826218
14.71127403,-4.083049774,3.419090509,2.704273224
14.72127403,-3.280424118,3.076380968,4.000649452
14.73127403,-2.452750683,2.732914686,5.505408287
14.741274,-2.051085234,2.439087152,7.121738434
14.75127403,-1.867464185,2.079334736,7.591582298
14.76127403,-2.114578485,2.034577608,7.037319183
14.77127403,-2.532181025,2.31851244,5.575872421
14.781274,-3.01025486,2.880523682,4.405706406
14.791274,-3.403597355,3.088140488,3.116038322
14.80127403,-4.033632755,3.07828784,1.457627296
14.81127403,-4.685750008,3.07274437,0.2787628174
14.82127399,-5.309783936,2.898913383,-0.7680654526
14.83127396,-5.863111496,2.441491127,-1.832465172
14.84127389,-6.564191341,1.765386343,-2.431937218
14.85127389,-7.007209778,1.065796256,-2.810522079
14.86127393,-7.340519905,0.4574193954,-3.435115337
14.87127393,-7.61139679,-0.01067769527,-4.195362091
14.88127393,-7.636368275,-0.2606357336,-4.973110199
14.89127389,-7.606657505,-0.3887383938,-5.746250153
14.90127393,-7.557981491,-0.5251854658,-6.227453232
14.91127396,-7.50997591,-0.7214856148,-6.185978413
14.92127396,-7.491379738,-1.028489232,-5.497932434
14.93127396,-7.544595242,-1.459272146,-4.598026276
14.94127396,-7.510536671,-1.642481089,-4.22255373
14.95127399,-7.644947052,-1.517478704,-3.418290615
14.96127399,-7.665569305,-1.135184407,-2.417067051
14.97127399,-7.766664982,-0.5047552586,-1.838725567
14.98127399,-7.720710278,0.2248282433,-1.299481392
14.99127399,-7.608538151,1.036637545,-0.652586937
15.00127396,-7.185991764,1.774548054,0.3063468933
15.01127399,-6.657157421,2.122908831,2.487559319
15.02127402,-6.289804935,2.152336121,4.486701012
15.03127399,-5.969328403,2.041566372,7.532610893
15.04127399,-5.460174561,1.239130497,9.459523201
15.05127396,-5.204519749,0.3183026314,9.402563095
15.06127399,-4.432676315,0.023914814,7.903687477
15.07127399,-3.685921907,0.8883886337,6.461924553
15.08127399,-2.556463242,1.994113922,5.583094597
15.09127395,-1.564503193,2.792230129,5.316765785
15.10127392,-1.13222456,2.782287121,5.951731682
15.11127392,-1.212408543,1.402757168,6.56129837
15.12127399,-1.322805285,-0.1740469933,6.434329033
15.13127405,-1.243778825,-2.019165993,6.371549606
15.14127409,-0.7491983175,-3.229419708,6.530310631
15.15127405,-0.03398883343,-3.84773922,6.020605087
15.16127402,1.209287286,-4.28273344,4.38997364
15.17127405,2.736913681,-4.114833355,3.055966377
15.18127405,4.093858719,-3.614028931,1.486807823
15.19127405,4.770432949,-3.461710215,0.4410543442
15.20127405,5.532400131,-3.643106222,-1.376695156
15.21127405,5.944373608,-4.232683182,-2.308035851
15.22127408,6.19041872,-4.922155857,-2.784795761
15.23127408,6.356243134,-5.60756731,-2.799240112
15.24127405,6.550777435,-6.030310154,-2.66916132
15.25127402,6.794835091,-6.523415089,-1.679333687
15.26127405,7.285629272,-6.792668343,-1.294196129
15.27127408,8.044960022,-6.846588135,-1.225155354
15.28127408,8.690848351,-6.610450745,-1.744407177
15.29127408,8.907869339,-6.074349403,-2.941554546
15.30127408,8.642206192,-5.43350935,-4.884652615
15.31127405,8.038284302,-5.033174992,-6.076795101
15.32127405,7.308527946,-4.938751698,-6.540670395
15.33127408,6.516708374,-5.160544395,-6.30149889
15.34127408,5.731125832,-5.43517065,-5.132718086
15.35127408,5.165225029,-5.641484261,-3.568461418
15.36127405,4.421256065,-5.40745163,-2.224142075
15.37127411,3.563348532,-4.583837509,-1.041760445
15.38127414,2.997252464,-3.60010457,-0.4971389771
15.39127414,2.718775988,-2.344104528,-0.5873365402
15.40127414,2.521120787,-0.5079436302,-0.6365151405
15.41127414,2.019587517,0.968020916,-0.02460765839
15.42127411,1.311016083,2.138525963,1.215149403
15.43127411,0.662325263,2.601872444,2.456634045
15.44127414,-0.3537070751,2.364723682,3.693668842
15.45127414,-1.723934412,2.05913496,4.307496548
15.46127414,-3.158761978,2.052275181,4.750959873
15.47127411,-3.828645706,2.339380741,4.690851688
15.48127414,-4.381204605,3.569578171,3.708552361
15.49127418,-4.625535488,4.955544472,3.093221664
15.50127414,-4.396199703,5.788653851,2.623810768
15.51127411,-3.835244179,6.059278011,2.518966675
15.52127407,-3.116744995,5.617703438,2.97258091
15.53127411,-2.619050264,4.797791958,3.624821663
15.54127411,-2.454994917,3.842603683,4.275653839
15.55127411,-2.5680511,3.205170631,4.46407032
15.56127407,-2.957684755,2.094056606,3.901054382
15.57127407,-3.442475796,1.614257812,2.864826202
15.58127411,-3.874369144,1.06844902,1.47468853
15.59127411,-4.242866039,0.6726775169,0.09798145294
15.60127411,-4.419769764,0.6009840965,-0.9571695328
15.61127411,-4.792179585,0.3763918877,-2.488584518
15.62127407,-5.16691637,0.08234000206,-3.670949936
15.63127404,-5.66809845,-0.4181756973,-4.077105045
15.64127407,-5.921674252,-1.000154734,-4.345745087
15.65127407,-5.926849365,-1.390589476,-4.832787514
15.66127407,-5.807649136,-1.506609678,-5.095171452
15.671274,-5.461961269,-1.642316341,-5.576559067
15.681274,-5.1085186,-1.697283745,-5.772338867
15.69127404,-4.897363186,-1.766465902,-5.686365604
15.70127404,-4.765528202,-1.849713564,-5.668995857
15.71127404,-4.67257452,-1.918221474,-5.33912611
15.72127404,-5.00995779,-2.185636044,-4.310851097
15.731274,-5.177596569,-2.555219412,-3.692044735
15.74127397,-5.298531055,-2.661954641,-4.027871132
15.751274,-5.530262947,-2.239488125,-4.376716137
15.761274,-5.694498539,-1.58937645,-4.489535332
15.771274,-5.907991886,-0.646718502,-4.264327526
15.78127397,-6.411916733,0.1916565895,-3.339021206
15.79127397,-7.000298977,0.8582653999,-2.023435116
15.80127397,-7.669650078,1.770498276,-0.0406332016
15.81127397,-7.715932369,2.339484215,1.536429405
15.82127393,-7.580277443,2.73604393,3.053957939
15.8312739,-7.337767601,3.356834888,5.210859299
15.8412739,-6.717433929,4.151786327,6.499075413
15.8512739,-5.783092022,4.723479748,7.197020054
15.8612739,-4.847834587,5.240497112,7.173080921
15.87127387,-3.664836168,5.700311661,5.800393105
15.88127383,-2.87898469,6.134139538,4.495863438
15.89127383,-2.697524548,6.59278965,3.617127895
15.90127386,-2.445991039,6.559337616,3.30725193
15.9112739,-2.383236647,5.718468189,3.338055611
15.9212739,-2.228532314,4.475461006,3.004223824
15.9312739,-2.149592638,2.892985821,2.795358658
15.94127386,-2.066416502,0.9714345932,3.421201229
15.9512739,-1.661765337,-1.27231884,3.329417229
15.9612739,-0.7782557011,-3.26314497,2.222889423
15.9712739,0.3821237087,-4.178824902,1.41080761
15.9812739,1.558853149,-4.450314999,0.9262399673
15.99127386,2.70828867,-4.951877594,0.1086392403
16.0012739,3.389165878,-5.725189209,-0.3135728836
16.0112739,3.740363359,-6.609638214,-0.7445688248
16.0212739,4.198950291,-7.525822163,-1.275278568
16.0312739,4.837162018,-8.198493958,-1.521166801
16.0412739,5.622621536,-8.698186874,-1.774162292
16.05127386,6.402897835,-8.773155212,-2.027706623
16.0612739,6.980125427,-8.508333206,-1.970953941
16.07127393,7.312604904,-7.983501434,-1.853398323
16.08127393,7.553477764,-7.137331009,-2.07542944
16.09127389,7.66648674,-6.189219475,-2.515533447
16.10127393,7.619791985,-5.147562981,-2.681930542
16.11127396,7.474189758,-4.357277393,-2.101658344
16.12127399,7.097737312,-4.336364746,-0.7908444405
16.13127399,6.75707531,-4.939878464,0.01098918915
16.14127399,5.868675709,-5.362206936,1.409573078
16.15127403,5.036130905,-5.902050018,2.607541084
16.16127406,4.374009132,-6.429931164,3.467998981
16.17127406,3.394322395,-6.223446846,4.069025993
16.18127406,2.375258923,-4.779167652,3.686006546
16.19127406,2.158850193,-3.418089151,2.832782269
16.20127402,2.373424053,-1.042617321,1.414560318
16.21127402,2.647805214,0.625603199,0.4862484932
16.22127406,2.684595346,2.012412548,0.01391887665
16.23127406,2.185851574,2.956986904,0.01312732697
16.24127406,1.184679985,3.358386517,0.5005164146
16.25127402,-0.4956078529,3.474517345,0.392932415
16.26127406,-2.073190689,3.90720892,-0.5514965057
16.27127409,-3.328923941,4.916548729,-1.097825527
16.28127406,-3.651920319,5.883193016,-1.292927265
16.29127406,-3.602488279,6.686451435,-1.52889061
16.30127402,-2.679510593,7.041674614,-1.953674316
16.31127406,-1.506577492,6.921597481,-2.284053326
16.32127406,-0.7655882835,6.533509731,-2.043467522
16.33127406,0.02364373207,4.271768093,0.02115631104
16.34127406,0.03897643089,1.959227562,2.648755074
16.35127409,0.02433395386,-0.5322890282,4.213477135
16.36127409,0.2157641649,-2.499673843,4.540668488
16.37127405,0.460391283,-3.0594275,4.079433441
16.38127405,0.7750114799,-2.77046442,2.91392231
16.39127405,1.08067131,-1.840606928,1.11252594
16.40127402,1.391529799,-0.871722579,0.05102157593
16.41127399,1.837217331,0.04081010818,-1.120524406
16.42127402,1.758421421,0.4376380444,-1.858880997
16.43127402,1.199859023,0.5076556206,-2.081340313
16.44127402,0.2235319167,0.3928253651,-1.823148251
16.45127402,-0.8971611261,0.03817248344,-1.418281555
16.46127402,-2.686772823,-0.6600060463,-0.2226915359
16.47127405,-4.014401913,-2.041822433,0.3170681
16.48127405,-5.577636242,-3.353047132,0.1200294495
16.49127405,-7.556444645,-4.19239521,-1.029180527
16.50127405,-8.572076797,-4.495885372,-2.316620827
16.51127405,-9.932772636,-4.387913704,-4.244083405
16.52127405,-10.62769985,-3.827152014,-5.425334454
16.53127405,-10.81435776,-3.247514009,-5.691855907
16.54127405,-10.54022121,-2.996940851,-5.276575089
16.55127405,-10.07280827,-2.605981112,-3.184112549
16.56127402,-9.931395531,-2.437589407,-1.202113152
16.57127405,-9.933056831,-2.447171926,0.04578971863
16.58127408,-10.03792,-2.423330784,0.8743038177
16.59127408,-10.44100475,-2.186009645,1.171360016
16.60127408,-10.67093849,-1.785161734,0.6229200363
16.61127405,-10.28820705,-1.538072944,0.5407552719
16.62127412,-9.51398468,-1.43102622,1.075469017
16.63127415,-8.698385239,-0.8208947182,2.279092789
16.64127415,-7.649776936,0.4526972771,3.79224968
16.65127412,-6.718992233,1.494098186,4.480727196
16.66127412,-5.961241245,2.469260693,4.396888733
16.67127412,-5.154117584,3.427852154,3.337244034
16.68127415,-4.786267281,4.364653111,1.727230072
16.69127418,-4.439310551,4.946490288,0.354429245
16.70127418,-3.986225605,4.398310184,0.3485202789
16.71127418,-3.722633839,2.554369926,1.542798996
16.72127415,-3.705502748,2.368967056,1.695494652
16.73127418,-3.748740196,1.954947472,2.065930367
16.74127421,-3.416240215,-4.292510986,9.051178932
16.75127418,-2.614241123,-5.759233475,9.80583477
16.76127414,-1.333739758,-6.197040081,9.359739304
16.77127411,0.8803983927,-5.443795204,7.19669342
16.78127414,3.193293333,-4.413520813,5.338212967
16.79127414,5.318085194,-3.508677483,3.136462212
16.80127414,6.516341209,-3.396533966,1.29458046
16.81127411,7.115525246,-3.809505701,0.1040906906
16.82127404,7.384084702,-4.656980515,-0.5408096313
16.83127404,7.334776878,-5.704983711,-0.7559738159
16.84127404,7.341240406,-6.472389221,-0.6723918915
16.85127404,7.41302681,-6.890851974,-0.6525716782
16.86127404,7.63629055,-6.854402542,-1.083792686
16.87127398,7.790901661,-6.242709637,-1.637888432
16.88127394,8.256900787,-5.431764603,-2.369601727
16.89127398,8.017614365,-4.131394863,-2.998060703
16.90127398,8.197954178,-3.548216581,-3.449773312
16.91127398,7.961199284,-3.077771187,-3.823379993
16.92127391,7.75911808,-3.389619112,-3.732016087
16.93127391,7.30469799,-3.873739243,-3.400876999
16.94127394,6.81187582,-4.34306097,-2.904296875
16.95127394,6.191823483,-4.42760849,-2.580420494
16.96127391,5.404828072,-3.825930357,-2.380362511
16.97127391,4.515727997,-2.578813791,-2.435112476
16.98127391,3.971833229,-1.016500235,-2.802440166
16.99127391,3.887596607,0.7786273956,-3.008947849
17.00127391,3.99136734,2.203873634,-2.786288261
17.01127391,3.822756052,3.200865746,-2.349257469
17.02127391,3.135544777,3.714448452,-1.475315094
17.03127387,2.447988749,3.40786314,-0.1746635437
17.04127387,0.8647840023,2.703321934,1.549525261
17.05127391,-0.9353233576,2.097376823,2.666269302
17.06127391,-2.388863802,1.905595779,3.278059006
17.07127391,-4.114756584,2.454374313,3.72653389
17.08127387,-4.625401974,3.80107975,2.71006012
17.0912739,-4.233634949,5.057364464,1.267905235
17.1012739,-3.184653759,5.996985912,0.2332258224
17.1112739,-2.303142548,5.993066311,0.4323415756
17.12127394,-1.900188446,4.464349747,1.959693909
17.13127394,-2.294739246,2.176214695,5.37848568
17.14127397,-3.307130337,0.7223396301,7.717398643
17.151274,-4.401164055,-1.007580996,8.907477379
17.161274,-4.817991257,-1.052037716,8.000246048
17.171274,-4.923130035,-0.1775202751,5.024941444
17.181274,-4.91164732,0.7906374931,2.701169968
17.19127397,-4.836960316,1.475594997,0.3354969025
17.201274,-4.940295219,1.681565046,-2.232901573
17.211274,-5.216088772,1.308199883,-3.8424716
17.221274,-5.528291702,0.7063593864,-4.341267586
17.23127397,-5.708982468,-0.4208397865,-4.006042957
17.24127394,-5.92113781,-1.539133549,-3.667901516
17.25127397,-6.163379669,-2.438553333,-3.396276951
17.26127397,-6.301592827,-3.181410074,-3.289738178
17.27127397,-6.248192787,-3.961194277,-3.294613838
17.28127393,-6.120205879,-4.538016319,-3.63521862
17.2912739,-5.884839058,-4.847924232,-4.234912872
17.3012739,-5.470522881,-4.858400345,-5.018032074
17.31127393,-5.157091141,-4.645279408,-5.571548462
17.32127393,-4.807742119,-4.204544544,-5.956924438
17.33127393,-4.78705883,-3.562044144,-5.566399574
17.3412739,-5.092844009,-3.150138855,-4.644285679
17.3512739,-5.30375433,-2.886446476,-4.10106039
17.36127393,-5.514659882,-2.666300058,-3.393806458
17.37127393,-5.271740913,-2.191987753,-2.525816441
17.38127393,-5.015257359,-1.288150072,-2.355057716
17.3912739,-4.683104515,-0.2931447029,-2.13563633
17.40127393,-3.546289921,1.070297718,-1.273317814
17.41127396,-2.593497515,1.660316944,0.187128067
17.42127396,-1.599031568,2.058926105,2.657165527
17.43127396,-0.8884910345,2.421054363,4.910305977
17.44127396,-0.5757177472,2.702338696,6.512627602
17.45127396,-0.8045566082,3.061148643,6.923271179
17.46127396,-1.144474506,3.636885166,5.748329163
17.47127396,-1.207220912,4.514285088,3.948375702
17.48127396,-0.8461441994,5.529373646,1.877004147
17.49127396,-0.2498719394,5.937339306,0.9429130554
17.50127393,0.008916735649,5.861906528,1.083749771
17.51127396,0.05495879427,4.576707363,1.714943886
17.52127396,-0.03287767619,3.289803982,2.55132103
17.53127396,-0.07805741578,1.942696095,3.681035995
17.54127396,0.1055614352,0.4591121674,4.141498566
17.55127393,0.2803367078,-1.14538002,3.709233284
17.56127396,0.7452278137,-2.007112265,2.847963333
17.57127396,2.208324671,-2.82242775,0.7660675049
17.58127396,3.367364645,-3.093090534,-1.498544693
17.59127396,4.149701118,-3.280011654,-2.545945644
17.601274,4.734065533,-3.858819723,-2.911159515
17.611274,5.256607056,-4.774011135,-2.792894363
17.62127403,5.619701385,-5.879152298,-2.304429054
17.63127403,5.655925751,-6.815850258,-1.320888519
17.64127403,5.425295353,-7.727950096,0.02773475647
17.65127399,5.132842541,-8.451925278,-0.3535938263
17.66127396,4.880068779,-8.847097397,-2.316453934
17.67127399,4.8455019,-8.078720093,-5.140656471
17.68127399,5.312963486,-6.45330143,-6.560450554
17.69127399,6.308737755,-4.656980038,-6.880143166
17.70127399,6.856926918,-2.806212425,-6.119134903
17.71127399,6.353432655,-1.700018287,-4.899565697
17.72127403,5.461903095,-1.934108377,-3.261304379
17.73127403,4.343969822,-2.859903812,-1.564230919
17.74127403,3.546991587,-3.606993437,-0.6770973206
17.75127399,2.777549505,-3.885997057,0.1895465851
17.76127403,2.003587484,-3.114144564,1.130796432
17.77127406,2.026944637,-1.497704744,0.7522344589
17.78127406,2.389775038,0.4859380722,0.1887016296
17.79127409,2.925438166,2.733632565,0.4360790253
17.80127409,3.038959265,4.260700703,1.524858475
17.81127402,2.953909397,4.621776581,3.394591331
17.82127402,1.927308559,3.801317215,6.586382866
17.83127402,0.2376661301,2.549968243,8.718356133
17.84127399,-1.454486609,1.727330446,9.463168144
17.85127399,-2.852996588,1.564460993,9.081961632
17.86127396,-3.661918402,1.928044796,7.421182632
17.87127399,-3.848500967,3.055312157,5.734507561
17.88127402,-3.424899101,4.288921356,4.715774536
17.89127399,-2.799570084,5.013300419,5.227770805
17.90127395,-2.654177189,4.105923653,6.432412148
17.91127395,-3.316690683,2.113810062,7.536821365
17.92127392,-4.689221382,0.07118201256,7.224973679
17.93127395,-5.775073051,-0.9742285013,5.84141922
17.94127399,-6.385068893,-1.006912351,3.551967621
17.95127399,-6.414296627,-0.2372596264,1.304023743
17.96127399,-6.014546394,0.5379295349,-0.6959667206
17.97127395,-5.60533762,1.219902277,-2.637271881
17.98127398,-5.322070122,1.681977272,-3.851066589
17.99127402,-4.728623867,2.550261259,-5.41805172
18.00127398,-4.500014782,2.856124401,-5.950798988
18.01127395,-3.828341007,3.020769119,-5.772921562
18.02127392,-3.867671013,2.264240742,-4.35735321
18.03127395,-4.306740761,1.173398018,-2.556376934
18.04127392,-4.983584404,-0.09962415695,-0.9669551849
18.05127392,-5.639215946,-1.015513659,-0.3518018723
18.06127388,-6.365447044,-1.676778197,-0.404873848
18.07127388,-6.654828548,-2.011715412,-1.075842857
18.08127391,-6.696338654,-1.756456494,-1.680923939
18.09127388,-6.438608646,-1.101963282,-1.927275658
18.10127388,-6.162887573,-0.6787016392,-1.887103081
18.11127391,-5.715976715,-0.07762932777,-1.275618553
18.12127391,-5.344506264,-0.09438323975,-0.5602989197
18.13127391,-4.925204277,-0.1576375961,0.4484272003
18.14127398,-4.438621521,-0.2042491436,2.091146469
18.15127398,-4.198036671,-0.3223967552,2.81139183
18.16127398,-4.158683777,-0.2097887993,2.763867378
18.17127394,-4.234842777,0.2950639725,2.206973076
18.18127394,-3.912926197,0.7601618767,1.423214912
18.19127401,-3.173008919,1.440367222,1.890276909
18.20127401,-2.195826769,2.068656921,3.660531998
18.21127398,-1.382050276,2.231809616,4.571863174
18.22127398,-0.8405809999,1.975135326,5.041122437
18.23127398,-0.7451596856,1.544604778,4.994017601
18.24127398,-1.195138097,1.249121189,4.104618073
18.25127398,-2.021076679,1.266128063,2.802103043
18.26127398,-2.597010612,1.631038666,1.702921867
18.27127398,-2.660923481,2.078576088,1.267787933
18.28127394,-2.303853273,2.319721699,1.098193169
18.29127394,-1.814381719,2.386071682,1.290145874
18.30127398,-1.580562234,2.288219452,1.475379944
18.31127398,-1.289314866,1.596044064,1.706801414
18.32127398,-0.9451623559,0.9067144394,1.712611198
18.33127394,-0.4782655835,0.3353157043,1.416920662
18.34127398,0.1516660452,-0.2500209808,0.9271535873
18.35127398,0.9041631222,-0.9549896717,0.3836717606
18.36127398,1.530086756,-1.615102053,-0.04228305817
18.37127394,2.118853092,-2.283574343,-0.3722677231
18.38127391,2.466154814,-2.691840887,-0.5631623268
18.39127391,3.232334137,-3.589962006,-1.016350746
18.40127394,3.641226053,-4.223977089,-1.28278017
18.41127397,3.794123173,-4.736779213,-1.527561188
18.42127397,3.775140524,-5.168473244,-2.027957916
18.43127397,3.70053339,-5.408597469,-2.500772953
18.44127394,3.673487186,-5.435471535,-3.098554134
18.45127397,3.735814333,-5.192373753,-4.091157913
18.46127397,3.727652788,-4.81555891,-4.993290424
18.47127397,3.62146616,-4.251226902,-5.654587746
18.48127394,3.692881346,-3.686892271,-6.171037674
18.4912739,3.612375975,-3.488543987,-5.653029442
18.50127394,3.35898757,-3.576036215,-4.583509922
18.51127394,3.170629501,-3.98033905,-3.384082794
18.52127394,2.713409185,-4.480743408,-2.260085106
18.5312739,2.372837067,-4.823554039,-1.475787163
18.54127387,2.339464903,-5.18543148,-0.7503061295
18.55127387,2.299810648,-4.861698627,-0.7365655899
18.5612739,2.113912344,-3.706640244,-1.241220474
18.5712741,2.0730443,-2.031646729,-2.355337143
18.5812741,2.045921564,-0.5993132591,-3.556783676
18.59127407,1.804115057,0.6785941124,-4.618988991
18.60127407,1.421890616,1.745095253,-4.407067776
18.6112741,0.9058777094,1.88192749,-2.719251156
18.6212741,0.2370038629,1.636389256,0.288517952
18.6312741,-0.4399906993,1.158859253,4.290032387
18.64127407,-0.7639712691,0.7413749695,6.535427094
18.6512741,-1.214312077,0.9192476273,7.249846458
18.66127413,-1.951080561,2.638030529,5.145914078
18.67127413,-2.318708658,4.603079796,3.06826973
18.68127413,-1.949474096,6.08480978,2.015357971
18.69127413,-1.264205098,6.281337261,2.787354469
18.7012741,-0.6396267414,5.012593746,4.693015099
18.7112741,-0.6088741422,3.760216236,6.897069931
18.72127413,-1.058202744,2.617158413,9.116648674
18.73127413,-1.728146315,1.696152449,9.706292152
18.74127413,-2.212584972,1.720599413,8.098867416
18.7512741,-2.545023441,2.397658348,5.514355659
18.76127413,-2.56928587,3.010368109,3.416920662
18.77127416,-2.596286535,3.640466213,0.4071865082
18.78127416,-2.689600945,3.936899662,-1.610021114
18.79127416,-2.752335072,3.859011889,-3.244812489
18.8012741,-2.898906231,3.480800867,-3.961798191
18.8112741,-3.119413614,2.802506447,-4.34210825
18.82127406,-3.552423954,1.831992149,-4.584394455
18.83127403,-4.29019022,0.8879864216,-3.883946896
18.841274,-5.123684883,-0.5135612488,-2.572485447
18.851274,-5.65755415,-1.674398303,-2.422073364
18.86127396,-5.952548504,-2.417396069,-2.923453808
18.87127379,-5.93505621,-2.798760414,-3.882243156
18.88127383,-5.654477119,-2.959260702,-5.16943264
18.89127383,-5.271280766,-2.927386999,-6.340470791
18.90127379,-4.87391758,-2.515921116,-6.98788023
18.91127376,-4.468160152,-1.989215612,-7.110499859
18.92127379,-4.193315506,-1.818822622,-6.712905884
18.93127379,-4.128490925,-2.062278748,-5.352458954
18.94133109,-3.966227055,-2.313286781,-3.326896191
18.95133109,-3.759521246,-2.360109806,-1.645897388
18.96133109,-3.517052889,-1.934952259,-1.078679562
18.97133113,-3.491072893,-0.8492517471,-0.9979705811
18.98133113,-3.309392929,0.6353979111,-1.185574055
18.99133113,-2.978892326,1.447239399,-1.392773151
19.00133113,-1.89310813,2.318058968,-0.8667488098
19.01133109,-1.203227639,2.446967125,0.5184726715
19.02133106,-1.035011292,2.504650593,1.869869232
19.03133109,-1.075890303,2.603191853,4.115480423
19.04133109,-1.216155767,2.742406845,5.371648788
19.05133109,-1.38689208,2.732535839,5.174939156
19.06133106,-1.878984928,3.0070858,4.420325279
19.07133106,-2.143501282,3.761536121,3.089978218
19.08133109,-1.845003128,4.271716595,2.012288094
19.09133109,-1.412613988,4.506814957,1.782202721
19.10133112,-1.093700886,4.407523155,2.285698891
19.11133112,-0.9424797297,3.993106842,3.174005508
19.12133122,-0.7139344215,3.237038136,3.849358559
19.13133129,-0.3343989849,2.053730965,4.472450256
19.14133132,0.1138492823,0.8582668304,5.258249283
19.15133132,0.3560180664,0.01841402054,5.365510941
19.16133132,1.02131331,-1.243955135,4.406933784
19.17133132,1.606466055,-1.81973505,3.042883873
19.18133129,2.039849043,-2.136676311,1.931573868
19.19133129,2.425710201,-2.636093855,-0.06926631927
19.20133129,2.651712179,-2.90405798,-1.385080814
19.21133129,2.783782959,-3.160850048,-2.548136234
19.22133126,2.989634752,-3.488906384,-3.60771656
19.23133129,3.098487616,-3.889401436,-4.265845299
19.24133132,3.254835129,-4.142138481,-4.741525173
19.25133129,3.444285393,-4.187405586,-5.142929077
19.26133125,3.378218889,-4.043093204,-5.18747282
19.27133122,3.293649673,-3.880699635,-5.203132629
19.28133125,3.110823631,-3.805727005,-5.443776131
19.29133125,2.849479198,-3.811794758,-5.435727596
19.30133125,2.713062286,-3.866407871,-5.37407589
19.31133125,2.582461596,-4.045831203,-5.136328697
19.32133129,2.421803236,-4.053678989,-4.597001553
19.33133128,2.250854015,-3.921299458,-3.956760406
19.34133129,2.035067558,-3.552185535,-3.410083771
19.35133128,1.822715759,-2.672832489,-3.007964134
19.36133129,1.476592779,-1.404530525,-2.586629391
19.37133125,1.468866825,-0.07963943481,-2.671922207
19.38133122,1.789656162,1.307984352,-2.357750893
19.39133125,2.239346981,2.222606182,-1.72882843
19.40133125,2.313370943,2.612572193,0.4505596161
19.41133125,1.986070633,2.540780544,3.169816971
19.42133118,1.548664331,2.180684566,5.558027267
19.43133118,0.8622940779,1.897476673,7.299212456
19.44133118,-0.1344837248,1.789799213,8.321109772
19.45133118,-1.319308043,2.386061192,7.945396423
19.46133118,-2.279761314,3.572879314,6.053444862
19.47133115,-2.377725363,4.701670647,3.775370598
19.48133118,-1.845324278,5.180142403,2.321268082
19.49133122,-0.5958345532,5.306819439,1.79595089
19.50133122,-0.2507875562,4.345356941,3.595907211
19.51133122,-0.5066356659,2.923652649,4.874446869
19.52133122,-1.310602546,1.644871235,5.614679337
19.53133118,-2.007393837,0.6493897438,5.458402634
19.54133118,-2.643563271,0.2885775566,3.971883774
19.55133121,-2.942848206,0.4714374542,2.36158371
19.56133121,-2.995192528,0.6821284294,0.5103473663
19.57133121,-2.773077965,0.8529274464,-1.247653961
19.58133118,-2.443422794,1.097955704,-2.880712986
19.59133121,-2.27148962,1.35303688,-4.195556164
19.60133121,-2.219911575,1.410597324,-5.378651142
19.61133121,-2.381517649,1.109680891,-6.145844936
19.62133118,-2.759245872,0.4850211143,-6.351615906
19.63133114,-3.351029634,-0.4865293503,-5.945322037
19.64133115,-3.973760605,-1.404275417,-5.242978573
19.65133121,-4.329003334,-2.299126148,-4.517328262
19.66133124,-4.659902573,-2.987380028,-3.863406658
19.67133124,-4.715846062,-3.108304977,-3.765211582
19.68133124,-4.568169117,-2.811445951,-4.049051285
19.69133121,-4.515425682,-1.941777229,-4.237748623
19.70133124,-4.381868362,-1.236224651,-4.36412859
19.71133124,-4.346547604,-0.7187230587,-4.037450314
19.72133124,-4.10173893,-0.3171885014,-3.195091724
19.73133121,-4.146990776,0.06720876694,-2.20228529
19.74133121,-4.415882111,0.1757717133,-0.8153886795
19.75133124,-4.889910698,-0.131319046,0.4532423019
19.76133124,-5.391489983,-0.3663475513,0.8713388443
19.77133124,-5.513576031,-0.2024827003,0.8787240982
19.78133121,-4.908427715,0.3714118004,0.2398023605
19.79133124,-3.798290968,1.240634441,0.3854379654
19.80133124,-2.423535585,2.30932951,1.435513496
19.81133121,-0.813867867,3.321472168,3.049005508
19.82133121,0.1385483146,4.054540634,4.695969582
19.83133117,0.143681705,4.094037056,5.805059433
19.84133111,-0.7506119013,3.530743599,5.952287674
19.85133111,-2.082264185,3.312672138,4.499550819
19.86133114,-2.706372738,3.765140057,3.339706421
19.87133114,-2.692235708,4.072085857,2.635498047
19.88133114,-2.259200096,4.291370869,2.173863411
19.89133114,-1.773461223,4.337696552,2.196312904
19.90133117,-1.180333614,4.157642841,2.678204536
19.9113312,-0.6672091484,3.500515461,2.997096062
19.9213312,-0.2080753744,2.408562183,3.323431015
19.93133121,0.2737320065,1.218757153,3.588946342
19.9413312,0.7466376424,-0.0305519104,3.391522408
19.95133117,1.14766264,-1.00767374,2.943950653
19.96133114,1.581122279,-1.841874361,2.240442276
19.97133114,2.162167072,-2.642490149,1.487829208
19.98133114,2.638405323,-3.308632612,0.9129009247
19.99133114,2.925151348,-3.843290567,0.1981935501
20.0013311,3.335458755,-4.55071497,-0.8675508499
20.01133114,3.69559288,-5.224651814,-1.708125114
20.02133117,3.831873894,-5.680190086,-2.465789795
20.03133117,3.875819921,-5.801548004,-3.346590042
20.04133117,3.889410019,-5.653646469,-4.081374645
20.05133114,4.043250084,-5.323221684,-4.93148613
20.06133117,4.307057858,-4.842274666,-6.096037865
20.07133117,4.339332104,-4.42057848,-6.972837448
20.08133117,4.431091309,-4.090453625,-7.059764385
20.0913311,4.53003788,-3.920809984,-7.064277649
20.1013311,4.435292244,-3.822056532,-6.663156033
20.11133113,4.157296181,-3.959085941,-5.651285172
20.12133117,3.64941597,-4.288283348,-4.256955624
20.13133123,2.990422249,-4.776965141,-2.461715698
20.14133127,2.383655548,-4.894956112,-1.285644054
20.15133123,1.579151273,-4.421855927,-0.9014234543
20.1613312,1.024730682,-3.030101061,-1.22778511
20.17133123,0.7787004709,-1.358238697,-1.569883823
20.18133123,1.011497259,-0.2973465919,-1.654343128
20.1913312,1.602245569,1.04813242,-1.243308544
20.20133116,1.378378153,1.597560883,-0.2355003357
20.21133116,0.796708107,1.539964676,1.305681229
20.2213312,-0.2449973822,0.9918732643,2.894216537
20.2313312,-1.226566792,0.6383094788,3.789452553
20.24133123,-2.234724998,1.212572098,4.941877365
20.2513312,-2.895657778,2.640041351,4.739445686
20.26133123,-2.785006523,4.334149361,3.048926353
20.27133126,-1.841112733,5.626241207,1.506668091
20.28133126,-0.5077787638,6.256955147,1.156099319
20.29133126,1.681785583,6.174767017,4.146608353
20.30133126,2.302362919,5.003090858,7.026052475
20.31133123,1.844002962,3.250612259,9.504518509
20.32133126,1.059132576,2.133029222,10.3997097
20.33133129,-0.1145484447,1.295454264,10.00544071
20.34133129,-1.279021859,1.209872246,8.337703705
20.35133129,-2.624569416,1.719464779,5.149080276
20.36133126,-3.340055466,1.875305653,2.820015907
20.37133132,-4.017504692,1.71723032,0.4706764221
20.38133136,-4.624444008,1.411257505,-1.599671841
20.39133136,-5.214642048,0.9463207722,-2.726507187
20.40133136,-5.596021652,0.5159397125,-3.261260986
20.41133136,-6.200205326,-0.4171106815,-3.734450817
20.42133132,-6.401804924,-1.117904425,-3.865354061
20.43133132,-6.58817625,-1.767950416,-3.958119392
20.44133136,-6.951798439,-2.414694309,-3.915299892
20.45133136,-7.1852355,-3.103809357,-3.969655037
20.46133136,-7.267012596,-3.523409605,-4.100633621
20.47133132,-6.993895531,-3.826214552,-4.675151348
20.48133136,-6.538232803,-3.737905502,-5.069316864
20.49133139,-5.954884529,-3.147659063,-5.630717278
20.50133139,-5.310889244,-2.827066898,-5.924875259
20.51133136,-4.864318371,-2.493139267,-5.854197502
20.52133132,-4.582912445,-2.241409779,-5.614848137
20.53133135,-4.853607655,-2.073468208,-4.419559002
20.54133132,-5.399538517,-2.379987717,-3.123836517
20.55133132,-6.057814121,-2.694066048,-2.663119793
20.56133129,-6.535373688,-2.582906246,-2.291889191
20.57133129,-6.463272095,-1.920845985,-1.785954475
20.58133132,-5.57247448,-0.7477183342,-1.192615509
20.59133132,-3.79324913,0.8271074295,-0.08310031891
20.60133132,-2.045024872,2.181284428,1.931680679
20.61133132,-0.6912631392,3.364243031,4.313863754
20.62133125,-0.1804848611,3.909741402,5.915821075
20.63133122,-0.3576569557,3.99096632,7.228795052
20.64133125,-1.168136716,3.614445686,6.388895988
20.65133125,-1.979777813,3.63044548,4.839810371
20.66133125,-2.181530952,4.065297127,3.183616638
20.67133118,-1.79092288,4.550058365,2.128020287
20.68133118,-1.340280056,4.719239712,2.387914658
20.69133122,-0.5767207146,4.040982246,5.064945221
20.70133122,-0.2273929417,2.684967518,7.235072136
20.71133122,-0.161784023,1.385177612,8.769249916
20.72133122,0.1733444184,0.107228756,9.252034187
20.73133122,0.6984491348,-0.6697411537,8.528707504
20.74133122,1.472692132,-1.050945282,6.820888519
20.75133122,2.636890888,-0.836482048,4.757512093
20.76133122,3.725568295,-0.5306377411,2.644989967
20.77133122,4.517416,-0.6791088581,0.6680545807
20.78133118,4.682805061,-1.275714874,-0.822218895
20.79133118,4.607964993,-2.109438419,-1.997201443
20.80133118,4.38939333,-3.124172211,-3.009238243
20.81133115,4.311755657,-4.014529228,-3.769453526
20.82133115,4.18621254,-4.678282738,-4.313885212
20.83133108,4.24905014,-4.976002216,-4.749681473
20.84133108,4.447740555,-5.164208889,-5.522242546
20.85133108,4.775390148,-5.012160301,-6.149176121
20.86133105,5.07759428,-4.560056686,-6.529597282
20.87133101,5.702071667,-4.228282452,-6.79576683
20.88133098,5.891077042,-4.214547157,-6.233956337
20.89133098,6.350084305,-4.458479404,-5.629417419
20.90133098,6.517196655,-4.52328825,-5.140010357
20.91133101,6.211765289,-4.532406807,-4.469767094
20.92133101,5.803085804,-4.69312191,-3.703385353
20.93133101,5.286952972,-4.719737053,-3.204725266
20.94133098,4.730938435,-4.259107113,-2.93835783
20.95133104,4.231546879,-3.224619389,-2.916831017
20.96133104,3.762188435,-1.861681461,-2.932143211
20.97133105,3.229946136,-0.04135942459,-3.154728413
20.98133101,2.9760077,1.303775311,-2.68469286
20.99133098,2.506497145,2.070266724,-1.433054924
21.00133101,1.698232651,1.906831741,1.209331512
21.01133101,0.6717261672,1.042677402,3.933729172
21.02133101,-0.690369606,0.1248207092,6.070536613
21.03133098,-2.090809345,-0.5621027946,7.6320467
21.04133098,-2.86750555,-0.6851706505,7.917663574
21.05133101,-3.540989637,0.3866662979,7.160879135
21.06133101,-3.73691535,2.521604538,5.676937103
21.07133104,-3.15142107,4.397616863,4.421286583
21.08133104,-2.650504589,5.779276371,3.991185188
21.09133101,-2.372221947,6.045277119,4.38624382
21.10133104,-2.48483634,5.085805893,4.999876976
21.11133111,-2.844104528,3.532529354,5.750295639
21.12133111,-3.31329608,2.256429672,5.960564613
21.13133114,-3.545899868,1.642018795,5.107358932
21.14133114,-3.712287426,1.586604118,3.559823036
21.15133117,-3.775864124,1.779238224,1.389055252
21.16133124,-3.806266308,1.867146492,-0.006816864014
21.17133124,-3.923878193,1.886969566,-2.133347034
21.18133124,-4.120950222,1.786941051,-3.698235512
21.19133124,-4.276912212,1.577428341,-4.48105526
21.20133127,-4.383371353,1.178213358,-4.939611435
21.21133124,-4.570207119,0.6603906155,-5.096848488
21.22133124,-4.950371742,0.02732396126,-4.769697666
21.23133124,-5.564819336,-0.6259994507,-3.978915691
21.24133124,-6.110905647,-1.466935396,-3.192698002
21.25133117,-6.403132439,-2.278317451,-2.93659687
21.2613312,-6.577074528,-2.691753864,-3.194509983
21.27133124,-6.686114311,-2.697794437,-3.865335941
21.28133127,-6.727135181,-2.266065598,-4.342229366
21.29133127,-6.681059361,-1.816202641,-4.293118
21.30133124,-6.487003803,-1.43862772,-3.637073994
21.31133127,-6.367192268,-1.31137228,-2.906415939
21.32133127,-6.367210388,-1.037477732,-2.184848785
21.33133127,-6.269190788,-0.5689404011,-0.7045640945
21.34133124,-6.351124763,-0.1997628212,0.8328323364
21.35133124,-6.550614834,0.09064340591,1.972014427
21.36133127,-6.444638252,0.4757151604,2.4106493
21.37133123,-5.917681694,1.054026604,2.377334595
21.38133123,-5.02256012,1.601967812,2.587721825
21.39133123,-4.063411713,1.963505268,3.653861046
21.4013312,-3.292225599,1.951800346,4.54241848
21.41133117,-2.059593201,1.83472538,5.68787384
21.4213312,-1.694997311,1.629072666,5.859746933
21.4313312,-1.732789874,1.543900967,4.957012177
21.4413312,-1.982851624,1.982214928,3.546913147
21.4513312,-1.995271087,2.70421505,2.469689369
21.4613312,-1.808890104,3.36443615,1.504080772
21.47133123,-1.383004189,3.617996693,1.28646946
21.48133123,-0.9964302182,3.371536255,1.759648323
21.49133123,-0.8295767903,2.42200613,2.561647415
21.5013312,-0.6640250683,1.483503342,3.028316498
21.5113312,-0.3815088272,-0.1479921341,3.477713585
21.5213312,0.1525968909,-1.246553421,3.447130203
21.53133126,0.9125258923,-2.162341118,3.243218422
21.54133126,1.783917665,-2.64163208,2.638796806
21.55133126,2.558756351,-2.886257648,1.91748333
21.56133123,3.455005884,-3.126703739,0.8684272766
21.57133123,4.063934803,-3.212582588,-0.2866277695
21.58133123,4.493999004,-3.35434556,-1.352678299
21.59133123,4.864146709,-3.798233509,-2.464922428
21.60133123,4.996011257,-4.213204384,-3.038180828
21.6113312,5.115447521,-5.200164318,-3.409075737
21.62133123,5.237537384,-6.05807972,-3.394339085
21.63133126,5.337180138,-6.486739159,-3.418908596
21.64133126,5.443706036,-6.516633034,-3.639451027
21.65133123,5.698904991,-6.081846237,-4.031149387
21.66133123,5.999834061,-5.37854147,-5.028738022
21.67133126,6.085058212,-4.585454941,-5.823204041
21.68133126,6.244521618,-4.026304722,-6.308228493
21.69133126,6.327174664,-3.837074518,-6.452078819
21.70133126,5.983250141,-3.945119619,-5.650223255
21.71133126,5.607550621,-4.325595856,-4.27315712
21.72133123,5.161176205,-4.818428993,-2.506598473
21.73133126,4.804389954,-5.188612938,-1.185280323
21.74133129,4.065475464,-5.062652588,0.01352119446
21.75133126,3.51693058,-4.41032505,0.422413826
21.76133123,3.023220062,-3.072910309,-0.05534744263
21.77133119,2.838405848,-1.363493443,-1.010420322
21.78133122,2.886070728,0.562608242,-1.290523529
21.79133122,2.766194344,1.934196472,-0.396033287
21.80133119,2.215845585,2.3673172,1.016940117
21.81133116,0.6489627361,1.431064129,3.884385109
21.82133116,-1.220228553,0.3760271072,5.384516716
21.83133106,-3.327244759,-0.355969429,6.261244774
21.84133106,-5.199850082,-0.3793497086,6.833291054
21.85133102,-6.012743473,0.4376449585,5.863523483
21.86133102,-6.19882822,2.092871189,4.404120445
21.87133099,-5.158741951,3.756795406,3.600050926
21.88133095,-4.157183647,4.857051849,3.927145004
21.89133095,-3.572836876,4.746501923,5.377417564
21.90133095,-3.034240961,3.626274586,7.753725052
21.91133095,-2.984487295,2.606322527,9.379666328
21.92133092,-3.287636757,1.915687084,9.395367622
21.93133092,-3.69971323,1.919308662,7.715859413
21.94133092,-4.109049797,2.639679432,5.446386337
21.95133092,-4.295354366,3.520574808,3.105078697
21.96133089,-4.163888931,4.328656673,0.9261341095
21.97133085,-4.023415565,4.59771347,-0.4664926529
21.98133089,-4.108242035,4.375300407,-1.655833244
21.99133092,-4.340150833,3.795502901,-2.846287251
22.00133092,-4.644951344,3.047872305,-3.538702488
22.01133092,-5.106568813,2.041581631,-3.816043854
22.02133092,-5.647969246,0.7719516754,-3.843669891
22.03133088,-6.050852299,-0.2344858646,-3.783238411
22.04133088,-6.321906567,-1.059241652,-3.942107201
22.05133092,-6.491806984,-1.644791842,-4.122943878
22.06133092,-6.372148991,-2.078598022,-4.498056412
22.07133092,-5.989656448,-2.296000004,-5.101212978
22.08133088,-5.610884666,-2.067173004,-5.709636211
22.09133092,-5.328458309,-1.762253761,-5.858050823
22.10133095,-5.019029617,-1.625934124,-5.949482918
22.11133098,-4.982680798,-1.305216074,-4.824475765
22.12133098,-5.139972687,-1.252323151,-3.354108334
22.13133102,-5.635849953,-1.228987694,-1.591645718
22.14133102,-6.011041641,-1.142637968,0.3271160126
22.15133112,-6.280180454,-0.6936204433,1.541856766
22.16133115,-6.147953033,-0.1046290398,1.834521294
22.17133115,-5.749377251,0.6195960045,1.975457191
22.18133115,-4.771812439,1.400053024,2.459317207
22.19133115,-3.818308115,2.019605637,3.686676025
22.20133121,-2.752174616,2.900732517,5.716981888
22.21133121,-1.934775352,3.627297401,7.305809021
22.22133121,-1.381531954,3.94944191,8.073646545
22.23133121,-1.317067266,4.061089993,8.185040474
22.24133121,-1.702388525,4.342887878,7.439283371
22.25133125,-1.562941074,4.769743919,6.164039612
22.26133125,-0.9488202929,5.087184906,4.875316143
22.27133125,-0.4463860393,5.113576889,3.652718067
22.28133121,-0.3637395799,4.734223366,3.236555576
22.29133118,-0.4037990868,3.717293739,3.691169262
22.30133118,-0.6438266039,1.902214527,4.089938641
22.31133121,-0.8203783035,0.3305506706,3.778588772
22.32133121,-0.6598991156,-0.8359456062,3.011061192
22.33133121,-0.03501486778,-1.739731312,1.776073456
22.34133118,0.6400290728,-2.148405313,1.14250946
22.35133118,1.584548116,-2.708517551,0.3363704681
22.36133121,3.097019672,-3.482756615,-1.022435188
22.37133121,4.037793159,-3.882329464,-1.930200577
22.38133121,4.880091667,-4.315146923,-2.620208263
22.39133118,5.50891161,-5.041869164,-3.212139606
22.40133121,5.851122856,-5.767997265,-3.598698139
22.41133124,6.149321556,-6.511907578,-3.70759964
22.42133124,6.47564888,-7.06056118,-3.605127335
22.43133124,6.897938728,-7.504966736,-3.503930569
22.44133124,7.038381577,-7.541644096,-3.444847584
22.45133121,7.104669571,-7.326060295,-3.728779793
22.46133118,7.177673817,-6.889258385,-4.280917168
22.47133118,7.309147358,-6.37868309,-4.898181915
22.48133118,7.384953499,-5.521261215,-5.912689686
22.49133118,7.10897541,-4.493480206,-6.748750687
22.50133111,6.756299973,-4.285337448,-6.896812439
22.51133114,5.832525253,-4.481066704,-6.136979103
22.52133117,5.069062233,-5.047450066,-4.265144348
22.53133114,4.278087616,-5.38946104,-2.662129879
22.54133114,3.685958862,-5.403485298,-1.626019478
22.55133111,3.07929635,-4.618423939,-0.7119064331
22.56133114,2.727119207,-3.479816914,-1.020268917
22.57133114,2.428493977,-2.088939905,-1.631865501
22.58133114,2.039134026,-0.3372817039,-2.001416206
22.59133114,1.921242237,0.6920218468,-1.861278057
22.60133114,2.029257059,1.921066761,-0.5357151031
22.6113311,1.615333319,2.736356735,2.153126717
22.62133114,1.138810515,2.987539291,4.640649796
22.63133117,0.1048817635,2.825819492,6.057642937
22.64133117,-1.331765175,2.904597282,6.481127739
22.65133114,-2.423816442,3.100106239,6.294487
22.6613311,-2.679562092,3.332837582,6.244783401
22.67133114,-2.411530018,3.198486328,8.01223278
22.68133114,-2.059700251,2.584176064,11.00302601
22.69133114,-2.159696341,1.533484459,13.53142834
22.7013311,-2.863705397,0.3250069618,14.59929466
22.7113311,-3.442895889,0.03324723244,13.6680479
22.72133114,-3.663487911,0.7414903641,11.29895973
22.73133114,-3.671090126,2.097624063,8.230131149
22.74133117,-3.525361061,3.178812265,5.542332649
22.75133113,-3.388815165,4.10132122,2.387634277
22.76133113,-3.618679523,4.259278297,0.8253278732
22.77133113,-4.001975536,3.942287445,-0.2328386307
22.7813312,-4.500608444,3.42077136,-0.7850036621
22.7913312,-5.056686401,2.741259098,-1.361124516
22.8013312,-5.551173687,2.045461416,-2.144225597
22.81133117,-5.814804077,1.375159979,-2.768126965
22.82133113,-6.156573296,0.635266304,-3.095795155
22.83133113,-6.424960136,-0.3816549778,-3.397027016
22.8413311,-6.5335145,-1.244129658,-3.623826981
22.8513311,-6.512115955,-1.991170287,-3.938144207
22.86133103,-6.321969986,-2.665579796,-4.347156048
22.87133106,-5.924571037,-3.060449123,-4.771295071
22.8813311,-5.561310768,-3.444103718,-5.471356392
22.89133106,-5.285463333,-3.649843931,-6.023810387
22.90133106,-5.186214924,-3.716587067,-6.236651421
22.91133106,-5.152924061,-3.700613737,-6.30659008
22.92133103,-5.395120144,-3.547390461,-5.921747208
22.93133103,-5.688411236,-3.168464422,-5.481366158
22.94133106,-5.866939545,-2.702288389,-4.871432781
22.95133106,-6.006986618,-1.990866423,-4.241811752
22.96133106,-6.020555973,-1.045092106,-3.061001301
22.97133103,-5.877540588,-0.07372283936,-2.104384422
22.98133106,-5.411297798,1.002851486,-1.048214912
22.99133109,-4.598925114,1.752151966,0.6480951309
23.00133109,-3.86332655,2.201746464,2.43666935
23.01133106,-2.554134369,3.007017612,5.417020321
23.02133103,-1.413149834,3.925348282,7.342205048
23.03133106,-0.8288418055,4.554448605,8.436891556
23.04133102,-0.7262929678,4.967559338,8.127153397
23.05133103,-0.9631848335,5.660204411,6.374522686
23.06133102,-1.055564046,6.339660645,4.980843067
23.07133106,-1.095282316,6.650038719,4.053098202
23.08133102,-1.304371476,6.253995895,4.195058823
23.09133102,-1.480012298,5.241715431,4.960804939
23.10133102,-1.598373175,4.114323139,5.388899803
23.11133102,-1.851993084,1.594138145,6.600527763
23.12133102,-1.484742045,-0.02128410339,6.875427246
23.13133102,-0.5624059439,-1.197289467,6.43838501
23.14133109,0.80251652,-1.805429697,5.197441101
23.15133109,2.167942047,-1.845226765,3.848335266
23.16133112,3.235290051,-1.881639719,2.210780144
23.17133109,4.097051144,-2.323275089,0.2667131424
23.18133109,4.44524622,-3.018897533,-1.290601254
23.19133116,4.503705502,-3.864661217,-2.420518398
23.20133116,4.449001789,-5.010750771,-3.530599594
23.21133116,4.470645428,-6.067744732,-4.176015854
23.22133116,4.581574917,-7.011270046,-4.556391239
23.23133112,4.800443649,-7.665944576,-4.897756577
23.24133109,5.181603432,-7.92751503,-5.213387012
23.25133112,5.570960522,-7.63375473,-5.475326538
23.26133112,5.818725109,-7.136539459,-5.970244408
23.27133112,5.949917316,-6.468152046,-6.746465683
23.28133109,5.910327911,-6.06162262,-7.231871128
23.29133109,5.869170666,-5.548019886,-7.975559711
23.30133112,5.700835705,-5.249408245,-8.368312836
23.31133112,5.540092468,-5.124994278,-8.104509354
23.32133112,5.401880264,-5.107714176,-7.043290615
23.33133109,4.880637169,-5.202280045,-5.229223251
23.34133112,4.03854847,-5.571883202,-3.480042458
23.35133112,3.123031139,-5.60695076,-2.119922638
23.36133112,2.35336256,-4.858449936,-1.187174797
23.37133108,1.911279202,-3.417305708,-1.885522842
23.38133105,1.992905736,-1.442946434,-2.756233692
23.39133105,2.629646301,0.7806940079,-3.080477715
23.40133112,3.058778763,2.039882183,-2.573408604
23.41133115,3.443904161,2.983193398,-0.02130031586
23.42133115,2.751618385,2.298588753,3.257096291
23.43133115,1.397645354,1.434856892,5.371631622
23.44133112,-0.5609507561,0.9597878456,6.880897522
23.45133118,-2.374491453,1.1197505,6.712734222
23.46133118,-2.845959187,2.144964218,5.304356575
23.47133118,-1.825938344,4.012537479,4.763163567
23.48133115,-0.6285880208,4.860350609,7.242378235
23.49133111,0.1819423139,4.023913383,9.720018387
23.50133115,0.292773664,3.266891003,11.71166992
23.51133115,-0.01317256689,1.997931957,13.40443134
23.52133115,-0.5954583287,1.77362442,12.25242996
23.53133115,-1.15341711,2.224943161,10.25295067
23.54133115,-1.762237072,3.182316542,7.965295792
23.55133111,-2.406785727,4.115986824,5.557184219
23.56133114,-2.976232767,4.596513748,3.435287476
23.57133115,-3.44315958,4.602303505,1.816265106
23.58133114,-4.162303925,4.095805168,0.3569517136
23.59133111,-4.77192688,3.635857344,-0.6186265945
23.60133111,-5.71165657,2.626731157,-1.958369732
23.61133114,-6.359152794,2.011563301,-2.764953136
23.62133114,-7.04831171,1.258304834,-3.237632751
23.63133114,-7.591591358,0.482036829,-3.661882401
23.64133111,-8.102279663,-0.304823637,-4.025195599
23.65133114,-8.16075325,-0.8141522408,-4.329325676
23.66133118,-7.985509872,-1.13162601,-4.6971488
23.67133118,-7.756661415,-1.499268174,-5.001329422
23.68133118,-7.506889343,-1.718832254,-5.166316032
23.69133118,-7.149106979,-1.840788007,-5.342891693
23.70133111,-6.644911289,-1.726678252,-5.177848339
23.71133111,-6.323013306,-1.520404935,-4.435914993
23.72133114,-6.188952446,-1.395474195,-3.517119884
23.73133114,-6.215304375,-1.367971659,-2.760629654
23.74133114,-6.187525749,-1.166625261,-2.030047417
23.75133108,-6.107188225,-0.8484177589,-1.482669353
23.76133111,-6.132531643,-0.08007240295,-1.015151978
23.77133114,-6.098344326,1.385014534,-0.08931446075
23.78133117,-5.730892181,2.573535919,0.9349927902
23.79133117,-5.037284851,3.277834415,2.151190758
23.80133117,-4.262622833,3.587224007,5.029528618
23.81133117,-3.704775572,3.372149944,8.531233788
23.82133114,-3.091154337,2.737636566,11.12263775
23.83133111,-2.682978392,2.181304455,12.18217087
23.84133107,-2.450533867,1.930066586,11.7512064
23.85133107,-2.014938354,2.478995323,10.26008415
23.861331,-1.315890789,3.505009651,8.092080116
23.87133104,-0.2879872918,4.30687809,6.270726204
23.88133107,0.2654108405,4.909175396,5.220951557
23.89133107,0.1392638087,4.314529419,5.122862339
23.90133104,-0.5215381384,2.718959808,5.167535782
23.911331,-1.114031076,0.921143055,4.781386375
23.92133104,-1.266489625,-0.7180242538,3.697695732
23.93133104,-0.7585780621,-1.639355183,2.593503475
23.94133104,0.2529399097,-2.185939789,1.462544918
23.951331,1.53464067,-2.59224391,0.2320342064
23.961331,2.755675554,-2.801402807,-0.7473959923
23.97133104,3.712331533,-3.046369791,-1.767098427
23.98133104,4.318648815,-3.47472024,-2.764869213
23.99133107,4.703642845,-4.149963379,-3.528579235
24.00133107,4.934472084,-4.826593399,-3.927846909
24.01133103,5.046103001,-6.20851469,-4.279307365
24.021331,5.183973312,-7.227443218,-4.367217064
24.03133107,5.139750004,-7.97289753,-4.384988785
24.04133107,4.862249851,-8.379029274,-4.520815849
24.05133107,4.688853741,-8.458600998,-4.944602489
24.06133103,4.636392117,-8.278066635,-5.664095879
24.07133103,4.667702675,-7.90823698,-6.494383335
24.08133103,4.974298954,-7.309542656,-7.604356766
24.09133103,5.258071423,-6.773103714,-8.635581017
24.101331,5.42681551,-6.189103603,-9.29856205
24.111331,5.43787384,-5.749158859,-8.84635067
24.12133106,5.155250072,-5.640003204,-7.417564392
