timestamp,timestamp,id,activity,phone,watch,Acceleration x (m/s^2),Acceleration y (m/s^2),Acceleration z (m/s^2),Gyroscope x (rad/s),Gyroscope y (rad/s),Gyroscope z (rad/s),label_walking,label_jogging,label_dribbling,label_playing_catch,label_kicking,label_stairs,label_sitting,label_drinking_from_cup,label_eating_soup,label_standing,label_clapping,label_eating_chips,label_brushing_teeth,label_eating_pasta,label_eating_sandwich,label_writing,label_typing,label_folding,Acceleration x (m/s^2)_kalman,Acceleration y (m/s^2)_kalman,Acceleration z (m/s^2)_kalman,Gyroscope x (rad/s)_kalman,Gyroscope y (rad/s)_kalman,Gyroscope z (rad/s)_kalman
1970-01-03 01:14:27.000,1970-01-03 01:14:27.000,1621.0,walking,0.0,1.0,-4.573972775,-8.353220425,2.0709845075,0.7736920666666666,-0.3555135466666666,0.16510693,1,0,0,0,0,0,0,0,0,0,0,0,0,0,0,0,0,0,-2.938437012110182,-6.274976087624196,-0.018922737541205853,-0.4300868735887542,-0.012979100021390723,-0.10375215534740015
1970-01-03 01:14:27.250,1970-01-03 01:14:27.250,1621.0,walking,0.0,1.0,-2.86570978,-7.348732580000001,-0.98066518,-3.969433174,0.89411265,-0.6836957700000001,1,0,0,0,0,0,0,0,0,0,0,0,0,0,0,0,0,0,-2.9181821373324524,-6.667385575738987,-0.46455047894837154,-1.646378573658325,0.21817604129273377,-0.31442955255194843
1970-01-03 01:14:27.500,1970-01-03 01:14:27.500,1621.0,walking,0.0,1.0,-2.07370788,-7.208911359999999,-7.48283792,-0.2129022644,-0.04584631319999999,-0.408431596,1,0,0,0,0,0,0,0,0,0,0,0,0,0,0,0,0,0,-2.5934076209776276,-6.923049707049547,-4.378865694335069,-1.0151747698113636,0.12761218650394737,-0.3572773403337317
1970-01-03 01:14:27.750,1970-01-03 01:14:27.750,1621.0,walking,0.0,1.0,-2.8425658833333336,-4.964826116666666,-8.095992916666665,-1.3921971133333333,-0.61574255,-0.3728518616666667,1,0,0,0,0,0,0,0,0,0,0,0,0,0,0,0,0,0,-2.698627775068188,-5.943435793128991,-6.5178916126449336,-1.1920208756176658,-0.1541151385846339,-0.3647828441341365
1970-01-03 01:14:28.000,1970-01-03 01:14:28.000,1621.0,walking,0.0,1.0,-3.2090383200000003,-5.27822702,-6.0376978600000015,0.8502117240000001,-0.022588932,-0.08416521199999999,1,0,0,0,0,0,0,0,0,0,0,0,0,0,0,0,0,0,-2.9204629028111366,-5.60605090562335,-6.240041158549294,-0.21780037883659786,-0.10248238477899058,-0.2276114388201349
1970-01-03 01:14:28.250,1970-01-03 01:14:28.250,1621.0,walking,0.0,1.0,-2.3624486,-5.90502918,-6.9067929999999995,0.22297851,1.10766622,-0.8249501159999998,1,0,0,0,0,0,0,0,0,0,0,0,0,0,0,0,0,0,-2.6757561520526,-5.7581901409694565,-6.626212962494551,-0.006574919243946431,0.37859165256818583,-0.5206770888471879
1970-01-03 01:14:28.500,1970-01-03 01:14:28.500,1621.0,walking,0.0,1.0,2.12763724,-8.34950908,-8.553524999999999,0.8009870079999999,0.41141631799999995,-0.100783444,1,0,0,0,0,0,0,0,0,0,0,0,0,0,0,0,0,0,-0.5634090561538962,-7.077865799495522,-7.742672293892687,0.38089179073117535,0.39169954074137686,-0.3144734691244928
1970-01-03 01:14:28.750,1970-01-03 01:14:28.750,1621.0,walking,0.0,1.0,0.5661389320000001,-6.81961412,-3.9571365799999993,1.327434782,0.7297276930000001,-0.18366117,1,0,0,0,0,0,0,0,0,0,0,0,0,0,0,0,0,0,-0.06624164345063588,-6.946321275173473,-5.54970866634099,0.8351920724117923,0.5269034282428859,-0.2502176622552887
1970-01-03 01:14:29.000,1970-01-03 01:14:29.000,1621.0,walking,0.0,1.0,4.41984592,-8.77136732,-3.82066712,-0.255548958,0.025163137999999984,-1.1504952000000002,1,0,0,0,0,0,0,0,0,0,0,0,0,0,0,0,0,0,1.9088397821027077,-7.875978930102883,-4.548068167822273,0.3116359134682175,0.3261012789848803,-0.6924676401121643
1970-01-03 01:14:29.250,1970-01-03 01:14:29.250,1621.0,walking,0.0,1.0,5.724685859999999,-6.6539353399999985,-4.27269238,-0.7824319018000001,-0.0006109286000000048,-0.20603173436,1,0,0,0,0,0,0,0,0,0,0,0,0,0,0,0,0,0,3.588979623510248,-7.253476924436755,-4.388541656236587,-0.21352984293156962,0.195319954184943,-0.4535081996312552
1970-01-03 01:14:29.500,1970-01-03 01:14:29.500,1621.0,walking,0.0,1.0,5.6164679999999985,-6.47101828,-4.438371139999999,-0.326498734,0.35838318799999996,-0.3315198744,1,0,0,0,0,0,0,0,0,0,0,0,0,0,0,0,0,0,4.481718955648141,-6.854895897697253,-4.417408125020622,-0.26775663601965766,0.26059829602191587,-0.3935817287683665
1970-01-03 01:14:29.750,1970-01-03 01:14:29.750,1621.0,walking,0.0,1.0,5.8319462400000015,-6.0778905,-5.854780819999998,0.995269868,-0.74393248,-0.260786314,1,0,0,0,0,0,0,0,0,0,0,0,0,0,0,0,0,0,5.076253227072432,-6.459092406954185,-5.250084552181486,0.338516394881124,-0.14155173095187334,-0.32834623580457195
1970-01-03 01:14:30.000,1970-01-03 01:14:30.000,1621.0,walking,0.0,1.0,7.466228339999999,-6.3446045600000005,-3.92266006,0.12665327200000004,-0.7859039059999999,0.157010392,1,0,0,0,0,0,0,0,0,0,0,0,0,0,0,0,0,0,6.128613694001598,-6.400772712671878,-4.4811015585273895,0.23681864113267387,-0.39951174911769444,-0.0899156356562848
1970-01-03 01:14:30.250,1970-01-03 01:14:30.250,1621.0,walking,0.0,1.0,4.20724084,-7.2486549999999985,-3.55203762,1.32826667,-0.12521837799999996,0.28931624,1,0,0,0,0,0,0,0,0,0,0,0,0,0,0,0,0,0,5.282588919616662,-6.8326805566557995,-3.942890663626808,0.7607315294254358,-0.28970073077148195,0.09638137691390194
1970-01-03 01:14:30.500,1970-01-03 01:14:30.500,1621.0,walking,0.0,1.0,4.69996744,-8.369620280000001,-2.3060950520000003,0.5403958839999998,-0.1203160168,-0.035802468799999994,1,0,0,0,0,0,0,0,0,0,0,0,0,0,0,0,0,0,5.026047126706695,-7.61559167551704,-2.994687588368743,0.6549667973238823,-0.2218889148079437,0.03144628630438398
1970-01-03 01:14:30.750,1970-01-03 01:14:30.750,1621.0,walking,0.0,1.0,2.42739136,-8.2676275,1.86747736,1.7371088200000002,-0.675736118,0.0587928492,1,0,0,0,0,0,0,0,0,0,0,0,0,0,0,0,0,0,3.8817985173837712,-7.9477362905892015,-0.17801336301954462,1.17441270039291,-0.4035830974583503,0.04488023862868673
1970-01-03 01:14:31.000,1970-01-03 01:14:31.000,1621.0,walking,0.0,1.0,6.47167706,-9.411097979999996,3.1531636224,0.70315974,-0.944389952,0.30252524140000003,1,0,0,0,0,0,0,0,0,0,0,0,0,0,0,0,0,0,5.0221822064510855,-8.693166795126313,1.75175259163058,0.94820356273563,-0.6200909220544095,0.17144791660083544
1970-01-03 01:14:31.250,1970-01-03 01:14:31.250,1621.0,walking,0.0,1.0,2.8171673675200006,-6.07310188,-0.45394061799999996,-0.040819994999999984,-1.0117162351200002,-0.8027931340000001,1,0,0,0,0,0,0,0,0,0,0,0,0,0,0,0,0,0,4.051262814179445,-7.358516008734427,0.47398451106010064,0.4734560500107133,-0.776875092444839,-0.3071463606662791
1970-01-03 01:14:31.500,1970-01-03 01:14:31.500,1621.0,walking,0.0,1.0,7.730547939999999,-7.2740335200000015,-1.9876662300000003,-2.14727258,0.423618648,0.88032466,1,0,0,0,0,0,0,0,0,0,0,0,0,0,0,0,0,0,5.671337677991289,-7.315480972033271,-0.952060931833383,-0.7845366360409225,-0.2962666977200438,0.27619677491283967
1970-01-03 01:14:31.750,1970-01-03 01:14:31.750,1621.0,walking,0.0,1.0,3.3414975119999992,-7.166773359999999,-2.5646688600000003,-1.2939960199999998,0.8789134539999999,0.3658019552,1,0,0,0,0,0,0,0,0,0,0,0,0,0,0,0,0,0,4.645454783234919,-7.239729873848621,-1.8862520333538744,-1.0290854668881189,0.1742076055271638,0.3202151709681744
1970-01-03 01:14:32.000,1970-01-03 01:14:32.000,1621.0,walking,0.0,1.0,6.0541281,-8.796746,-5.2227115400000015,0.27066265112,-0.23279330199999998,-0.17641764633919998,1,0,0,0,0,0,0,0,0,0,0,0,0,0,0,0,0,0,5.265726464083576,-8.032867943569387,-3.8190781614435583,-0.40518506712473845,0.011267934539360036,0.07624513645430378
1970-01-03 01:14:32.250,1970-01-03 01:14:32.250,1621.0,walking,0.0,1.0,5.016002200000001,-7.0887223000000015,-1.2354080399999998,2.359646154,-0.6644384329999999,-0.890144798,1,0,0,0,0,0,0,0,0,0,0,0,0,0,0,0,0,0,5.155767048349362,-7.551923799918925,-2.3223463656559176,0.9219791859858503,-0.25924589086084154,-0.3984923010744442
1970-01-03 01:14:32.500,1970-01-03 01:14:32.500,1621.0,walking,0.0,1.0,7.74347682,-7.408587940000001,0.44627920600000004,-3.37573752,0.4063653594,1.0918861679999998,1,0,0,0,0,0,0,0,0,0,0,0,0,0,0,0,0,0,6.295195914124001,-7.478909068289029,-0.7184690278753614,-1.1409952068379257,0.00722643712406662,0.3336536038940868
1970-01-03 01:14:32.750,1970-01-03 01:14:32.750,1621.0,walking,0.0,1.0,4.89198256,-5.66752436,-4.72567542,0.12152561400000005,1.67083424,-0.101209962,1,0,0,0,0,0,0,0,0,0,0,0,0,0,0,0,0,0,5.677328410645188,-6.556196753227855,-3.039861947855313,-0.5349645258208887,0.6732389562552485,0.12002761164164016
1970-01-03 01:14:33.000,1970-01-03 01:14:33.000,1621.0,walking,0.0,1.0,6.656988059999999,-8.21303984,-4.05194694,0.989290034,-0.53000208,-0.110158198,1,0,0,0,0,0,0,0,0,0,0,0,0,0,0,0,0,0,6.108695394070335,-7.400185932814752,-3.6261674735306886,0.19670264951412786,0.1915307047655334,0.006949221357165247
1970-01-03 01:14:33.250,1970-01-03 01:14:33.250,1621.0,walking,0.0,1.0,6.08429494,-5.16378428,-1.7841591400000003,0.6221999100000001,-0.569629914,-1.028203092,1,0,0,0,0,0,0,0,0,0,0,0,0,0,0,0,0,0,6.0979512427796605,-6.260971769706948,-2.559083722215194,0.400948298129421,-0.11319407064338322,-0.5015676240529668
1970-01-03 01:14:33.500,1970-01-03 01:14:33.500,1621.0,walking,0.0,1.0,8.73754912,-9.35459492,-2.6858154999999995,-0.48354504,0.6594730120000001,1.19479073,1,0,0,0,0,0,0,0,0,0,0,0,0,0,0,0,0,0,7.260227499700565,-7.836851468113467,-2.632500057635503,-0.02362299419475583,0.19613722729538752,0.33176554989272866
1970-01-03 01:14:33.750,1970-01-03 01:14:33.750,1621.0,walking,0.0,1.0,3.50526092,-10.507163400000001,0.25953147000000004,1.36596674,0.2704389468,4.356282780000001,1,0,0,0,0,0,0,0,0,0,0,0,0,0,0,0,0,0,5.606828323618865,-9.197097769246042,-0.9571330866142511,0.6434028738521753,0.22588334414019476,2.308802812914699
1970-01-03 01:14:34.000,1970-01-03 01:14:34.000,1621.0,walking,0.0,1.0,-6.7519779999999985,-3.96716224,-0.29113493,0.3284031370000001,-0.972731576,4.31665482,1,0,0,0,0,0,0,0,0,0,0,0,0,0,0,0,0,0,0.16495826690538706,-6.53298895905704,-0.5713173321995466,0.4921978427900986,-0.25397289218613694,3.295156654925481
1970-01-03 01:14:34.250,1970-01-03 01:14:34.250,1621.0,walking,0.0,1.0,-5.91927462,-0.12159554839999998,4.05434114,-2.0047331,-0.6866119354000001,1.79730428,1,0,0,0,0,0,0,0,0,0,0,0,0,0,0,0,0,0,-2.514071174024014,-3.2670501672060945,2.108347688628073,-0.7063699148947229,-0.427176599399338,2.5593392001365887
1970-01-03 01:14:34.500,1970-01-03 01:14:34.500,1621.0,walking,0.0,1.0,-8.58162692,-0.345692792,6.58357582,0.2932537606,0.150901635,-0.27378281800000004,1,0,0,0,0,0,0,0,0,0,0,0,0,0,0,0,0,0,-5.185757187000375,-1.7789221129416988,4.70086757438974,-0.22653417716773594,-0.1957474425049715,1.1675727895923496
1970-01-03 01:14:34.750,1970-01-03 01:14:34.750,1621.0,walking,0.0,1.0,-7.5703162000000015,0.623480058,3.50846316,3.2110068600000004,-0.0020596980000000147,-1.2768358,1,0,0,0,0,0,0,0,0,0,0,0,0,0,0,0,0,0,-6.235734074664414,-0.5551478074366798,4.0101022834674245,1.4235418540544278,-0.11820604919998172,-0.03323880410525715
1970-01-03 01:14:35.000,1970-01-03 01:14:35.000,1621.0,walking,0.0,1.0,-10.534337599999999,1.5825972,2.906082,-0.7922569,0.031602665999999995,-0.6994624859999999,1,0,0,0,0,0,0,0,0,0,0,0,0,0,0,0,0,0,-8.128509437501382,0.533811187849178,3.3705382799853503,0.35992215036860564,-0.058231286599956474,-0.3605200572223841
1970-01-03 01:14:35.250,1970-01-03 01:14:35.250,1621.0,walking,0.0,1.0,-4.971649640000001,-3.913053234,3.0923509000000005,-1.3530166039999998,-0.9808167,-1.84717836,1,0,0,0,0,0,0,0,0,0,0,0,0,0,0,0,0,0,-6.738470591588254,-1.7314042207624825,3.2093831045051946,-0.46231652335123696,-0.42758124376364465,-1.0908384295060953
1970-01-03 01:14:35.500,1970-01-03 01:14:35.500,1621.0,walking,0.0,1.0,2.20089988,-8.025334099999998,5.65414676,-0.677851966,-2.30217068,-3.41013436,1,0,0,0,0,0,0,0,0,0,0,0,0,0,0,0,0,0,-2.802257715260117,-4.937507678581609,4.625645719636714,-0.5657770716590277,-1.1780586831517224,-2.230188619100142
1970-01-03 01:14:35.750,1970-01-03 01:14:35.750,1621.0,walking,0.0,1.0,3.358256946,-10.515783,3.551079912,-2.351805962,0.6183540380000001,-1.1406950128,1,0,0,0,0,0,0,0,0,0,0,0,0,0,0,0,0,0,-0.08963966773439624,-7.77905952294209,4.0031449211085715,-1.4231001854002483,-0.45887872378632644,-1.6949767056498692
1970-01-03 01:14:36.000,1970-01-03 01:14:36.000,1621.0,walking,0.0,1.0,6.700083640000001,-8.7287505,0.7240066,-0.1863358,0.09402982500000004,-0.196018506,1,0,0,0,0,0,0,0,0,0,0,0,0,0,0,0,0,0,2.9000335851463483,-8.262828263566265,2.103525225073572,-0.8294330171060664,-0.2375260558564481,-0.9586160180334238
1970-01-03 01:14:36.250,1970-01-03 01:14:36.250,1621.0,walking,0.0,1.0,5.70361682,-6.55720972,0.13215995999999994,-0.187184808,-0.5636700300000002,-0.74825159,1,0,0,0,0,0,0,0,0,0,0,0,0,0,0,0,0,0,4.134516452070315,-7.393992715239165,0.9615043936868466,-0.5211433548087729,-0.3680952819220292,-0.8552748610464568
1970-01-03 01:14:36.500,1970-01-03 01:14:36.500,1621.0,walking,0.0,1.0,9.3231712,-6.494960539999999,-0.5415683600000001,0.7758163679999999,-0.113492996,0.170645506,1,0,0,0,0,0,0,0,0,0,0,0,0,0,0,0,0,0,6.419202093322307,-6.936029114380522,0.09076754703940215,0.10141856896504475,-0.2661672219464115,-0.35129321263183566
1970-01-03 01:14:36.750,1970-01-03 01:14:36.750,1621.0,walking,0.0,1.0,5.1859905400000015,-6.82152952,1.875138772,-0.46329984799999996,0.6307018,0.3574928828,1,0,0,0,0,0,0,0,0,0,0,0,0,0,0,0,0,0,5.876190250877641,-6.877703400672308,1.1244618781452629,-0.16965552054117727,0.09288735976254553,-0.003103234036302527
1970-01-03 01:14:37.000,1970-01-03 01:14:37.000,1621.0,walking,0.0,1.0,6.16857102,-9.5782132,0.7800309239999998,0.18011891200000002,0.6394385679999999,0.5941946619999999,1,0,0,0,0,0,0,0,0,0,0,0,0,0,0,0,0,0,6.004932298205417,-8.253332321761995,0.9249314549643382,-0.0017580588101478722,0.31169491751679446,0.29031834372525095
1970-01-03 01:14:37.250,1970-01-03 01:14:37.250,1621.0,walking,0.0,1.0,3.2792483000000003,-7.8467265400000015,1.373792928,0.040569904000000025,-0.22555723600000005,1.10530854,1,0,0,0,0,0,0,0,0,0,0,0,0,0,0,0,0,0,4.804750162456177,-8.046208860423645,1.1849589168528052,0.018560057451507798,0.09661016440901579,0.6906808985651964
1970-01-03 01:14:37.500,1970-01-03 01:14:37.500,1621.0,walking,0.0,1.0,2.38621106,-10.619212199999998,1.237802284,-0.35336230399999996,0.2717039480000001,0.6583235404,1,0,0,0,0,0,0,0,0,0,0,0,0,0,0,0,0,0,3.739811143620323,-9.356886698495211,1.2155713091487503,-0.15996876423204281,0.16670761324762456,0.6747853940916348
1970-01-03 01:14:37.750,1970-01-03 01:14:37.750,1621.0,walking,0.0,1.0,-1.754321478,-7.82613666,1.121444046,0.14859027779999998,0.2261106248,0.726500486,1,0,0,0,0,0,0,0,0,0,0,0,0,0,0,0,0,0,1.320616676889765,-8.577128564583907,1.1610429247337624,-0.011855366511106913,0.19048914935706,0.7001903580738195
1970-01-03 01:14:38.000,1970-01-03 01:14:38.000,1621.0,walking,0.0,1.0,-1.34491284,-9.956497459999998,3.62721553,2.58505986,-2.05610656,1.6803383,1,0,0,0,0,0,0,0,0,0,0,0,0,0,0,0,0,0,0.1469219663823509,-9.279773562321845,2.5897079472620126,1.2347065026734563,-0.7089181033247136,1.1816863623737255
1970-01-03 01:14:38.250,1970-01-03 01:14:38.250,1621.0,walking,0.0,1.0,-1.06407304,-4.1184759,7.677007700000001,0.09717031833333334,-0.620627245,0.9127442116666667,1,0,0,0,0,0,0,0,0,0,0,0,0,0,0,0,0,0,-0.3863073425839647,-6.650628675783508,5.536803737824031,0.6886704944655555,-0.6735715315236295,1.0495689908403476
1970-01-03 01:14:38.500,1970-01-03 01:14:38.500,1621.0,walking,0.0,1.0,-0.97333278,-5.18916296,9.55478006,0.027150925999999985,0.32432668,-0.54329471,1,0,0,0,0,0,0,0,0,0,0,0,0,0,0,0,0,0,-0.6447882988551266,-5.90616362514276,7.8644356016912855,0.3711302622887582,-0.2740706801701155,0.2670773774158324
1970-01-03 01:14:38.750,1970-01-03 01:14:38.750,1621.0,walking,0.0,1.0,-2.49173544,-2.79208804,7.67245882,0.9767276232,0.340305643,-0.9414905720000002,1,0,0,0,0,0,0,0,0,0,0,0,0,0,0,0,0,0,-1.4580421233071967,-4.319865666667654,7.7532224826773195,0.6618269093967826,-0.028109856562553465,-0.3266295970955525
1970-01-03 01:14:39.000,1970-01-03 01:14:39.000,1621.0,walking,0.0,1.0,-2.99020831,-5.4726363000000005,9.2784891,-0.95588,-0.16739084699999998,0.37176743,1,0,0,0,0,0,0,0,0,0,0,0,0,0,0,0,0,0,-2.132690592554177,-4.907082490734579,8.63681635480919,-0.11469890654759818,-0.08386992837831926,0.016456764479949926
1970-01-03 01:14:39.250,1970-01-03 01:14:39.250,1621.0,walking,0.0,1.0,-1.0073304440000002,-4.61168136,7.1610575,-0.45286337,-0.8031385467999999,0.8890598059999999,1,0,0,0,0,0,0,0,0,0,0,0,0,0,0,0,0,0,-1.6371683133033461,-4.7566063587915135,7.781902545253821,-0.27702338760386713,-0.3718235703161305,0.4451215241131774
1970-01-03 01:14:39.500,1970-01-03 01:14:39.500,1621.0,walking,0.0,1.0,-0.189949968,-5.818359,9.4408162,-0.038258281400000003,0.33349141400000004,-0.431655,1,0,0,0,0,0,0,0,0,0,0,0,0,0,0,0,0,0,-0.9999243927883082,-5.29745896018443,8.742918585511656,-0.16241222409454112,-0.08945616068446166,0.014406541474103807
1970-01-03 01:14:39.750,1970-01-03 01:14:39.750,1621.0,walking,0.0,1.0,-2.474018394,-5.70583154,6.4806252,-0.210189196,0.6730929459999999,-0.7710482414000001,1,0,0,0,0,0,0,0,0,0,0,0,0,0,0,0,0,0,-1.6490022671634608,-5.505482352918171,7.432361745974653,-0.18534595222536937,0.21582449383596836,-0.37144679811099807
1970-01-03 01:14:40.000,1970-01-03 01:14:40.000,1621.0,walking,0.0,1.0,-2.68039858,-7.34059262,7.45362866,0.273440858,-0.725812328,0.455923316,1,0,0,0,0,0,0,0,0,0,0,0,0,0,0,0,0,0,-2.103150019818237,-6.44028024369933,7.444681696167903,0.0348792385113611,-0.16115253402661361,0.03499737545699849
1970-01-03 01:14:40.250,1970-01-03 01:14:40.250,1621.0,walking,0.0,1.0,-0.7707833000000001,-7.7825622600000015,3.417004598,-2.884855154,0.3358301920000001,0.4944859270000001,1,0,0,0,0,0,0,0,0,0,0,0,0,0,0,0,0,0,-1.516477942776211,-7.124033464115017,5.1114300903772705,-1.3666411654089834,0.037810659829172005,0.2607203448610239
1970-01-03 01:14:40.500,1970-01-03 01:14:40.500,1621.0,walking,0.0,1.0,-2.71391741,-8.86234716,3.01765174,2.03687854,-0.304604896,0.2217781974,1,0,0,0,0,0,0,0,0,0,0,0,0,0,0,0,0,0,-2.043738449075889,-8.009523904784432,3.898494834592573,0.26710408161649424,-0.099272761464624,0.24159008146912972
1970-01-03 01:14:40.750,1970-01-03 01:14:40.750,1621.0,walking,0.0,1.0,-1.83428768,-6.9833778,6.12053718,-0.1878242344,0.5989598340000001,-0.874591942,1,0,0,0,0,0,0,0,0,0,0,0,0,0,0,0,0,0,-1.9515123841091315,-7.486809150265951,5.185734095224151,0.048731035975431936,0.18025927983251078,-0.30673245598247467
1970-01-03 01:14:41.000,1970-01-03 01:14:41.000,1621.0,walking,0.0,1.0,-2.66076616,-7.1088338800000015,5.969223680000002,0.3158327868,-0.5131762360000001,0.22710452,1,0,0,0,0,0,0,0,0,0,0,0,0,0,0,0,0,0,-2.2638133149128685,-7.294269976234194,5.639613058169663,0.1769442561332668,-0.09735228654095474,-0.04448594505160797
1970-01-03 01:14:41.250,1970-01-03 01:14:41.250,1621.0,walking,0.0,1.0,-0.3173215048000001,-7.0695688200000015,6.892427700000002,0.15860453600000005,-0.3474290640000001,0.05495779214000003,1,0,0,0,0,0,0,0,0,0,0,0,0,0,0,0,0,0,-1.4067276656755094,-7.179807989133278,6.365374386761236,0.1681408882846993,-0.19746859509753872,0.004365623018666137
1970-01-03 01:14:41.500,1970-01-03 01:14:41.500,1621.0,walking,0.0,1.0,0.32719760600000003,-7.36644974,5.895003400000001,-0.5112337339999999,0.6085392260000001,-0.536690066,1,0,0,0,0,0,0,0,0,0,0,0,0,0,0,0,0,0,-0.643240006825681,-7.274882616219705,6.092886295126825,-0.15797006816139592,0.12521041319798965,-0.2614270662907021
1970-01-03 01:14:41.750,1970-01-03 01:14:41.750,1621.0,walking,0.0,1.0,-2.73881712,-8.81637844,5.634035400000001,-0.1066554412,-0.008232894000000001,0.373684914,1,0,0,0,0,0,0,0,0,0,0,0,0,0,0,0,0,0,-1.5659714288759412,-8.060114653255921,5.827072000348309,-0.13333820644507796,0.07178741513054843,0.05057062158514214
1970-01-03 01:14:42.000,1970-01-03 01:14:42.000,1621.0,walking,0.0,1.0,-1.5967828519999998,-6.43031692,5.394615420000001,-0.02931954719999997,-0.17078825000000006,0.1414572586,1,0,0,0,0,0,0,0,0,0,0,0,0,0,0,0,0,0,-1.5795383943136572,-7.229902048756756,5.5765480765858015,-0.08340754562888264,-0.02532587721325652,0.09521852914286846
1970-01-03 01:14:42.250,1970-01-03 01:14:42.250,1621.0,walking,0.0,1.0,-2.1522377,-9.0452642,4.8477795,-0.8314623720000001,-0.45351184,0.225826203,1,0,0,0,0,0,0,0,0,0,0,0,0,0,0,0,0,0,-1.8317112085615757,-8.154640468871172,5.154369006095843,-0.44248612452396946,-0.19674681970458427,0.15937932889618367
1970-01-03 01:14:42.500,1970-01-03 01:14:42.500,1621.0,walking,0.0,1.0,0.192164632,-8.03969938,5.2313306599999985,0.4698654787999999,-0.21574641600000002,-0.09268786400000001,1,0,0,0,0,0,0,0,0,0,0,0,0,0,0,0,0,0,-0.9405515686131778,-8.096090015474967,5.198953363601623,-0.004542409794293767,-0.2043531620719698,0.03555174405322738
1970-01-03 01:14:42.750,1970-01-03 01:14:42.750,1621.0,walking,0.0,1.0,-2.3021146800000003,-9.2889938,4.79079758,-0.9049641180000002,0.1696652002,-0.35069490740000003,1,0,0,0,0,0,0,0,0,0,0,0,0,0,0,0,0,0,-1.5400795185870573,-8.703750567552987,4.962506943747388,-0.4367595693494506,-0.05461779703755451,-0.15419126539035122
1970-01-03 01:14:43.000,1970-01-03 01:14:43.000,1621.0,walking,0.0,1.0,-0.4552275440000001,-7.47658308,5.43962636,1.061088822,-0.82912832,0.6001601080000001,1,0,0,0,0,0,0,0,0,0,0,0,0,0,0,0,0,0,-1.0623939471595119,-8.078636198166294,5.238904301220947,0.28223219028766666,-0.3646871080952827,0.2163825804667982
1970-01-03 01:14:43.250,1970-01-03 01:14:43.250,1621.0,walking,0.0,1.0,-0.6280889000000001,-8.415110299999998,6.51797476,-0.010353305999999974,-0.4582045146000001,0.3114734632,1,0,0,0,0,0,0,0,0,0,0,0,0,0,0,0,0,0,-0.8711593221359499,-8.250034939714192,5.979875669552126,0.14178635792825967,-0.4021260771739674,0.2630958140590593
1970-01-03 01:14:43.500,1970-01-03 01:14:43.500,1621.0,walking,0.0,1.0,-0.07933786139999999,-7.44545866,5.94815472,0.3524789564,0.65179589,-0.2837963,1,0,0,0,0,0,0,0,0,0,0,0,0,0,0,0,0,0,-0.5225019039270398,-7.8401870383371195,5.961499699211939,0.2429222548899469,0.0198034363045429,-0.0055640190754489005
1970-01-03 01:14:43.750,1970-01-03 01:14:43.750,1621.0,walking,0.0,1.0,-1.50963395,-6.07453878,6.632896239999999,0.2463786060000001,0.34137783399999994,-0.370082722,1,0,0,0,0,0,0,0,0,0,0,0,0,0,0,0,0,0,-0.9571590980320013,-6.9407726669642456,6.350442864604673,0.24458135746150297,0.14854326025461959,-0.18463322355502482
1970-01-03 01:14:44.000,1970-01-03 01:14:44.000,1621.0,walking,0.0,1.0,-2.10483256,-8.198674700000002,4.57100996,-1.3272331999999998,-0.463104532,-0.13551149119999994,1,0,0,0,0,0,0,0,0,0,0,0,0,0,0,0,0,0,-1.4625064762310418,-7.581543287302531,5.319609406184092,-0.5099153819400309,-0.0963252174141846,-0.16050225373254642
1970-01-03 01:14:44.250,1970-01-03 01:14:44.250,1621.0,walking,0.0,1.0,-0.894324108,-9.0720791,6.3805475,0.863163522,-0.6009497500000001,0.37219353520000004,1,0,0,0,0,0,0,0,0,0,0,0,0,0,0,0,0,0,-1.212322561292852,-8.340816214040712,5.934215666246029,0.14918499399177654,-0.2983477593095025,0.10118365838713642
1970-01-03 01:14:44.500,1970-01-03 01:14:44.500,1621.0,walking,0.0,1.0,-0.381007284,-5.872946499999999,7.64372814,2.80471872,-0.1345844432,0.17916762460000002,1,0,0,0,0,0,0,0,0,0,0,0,0,0,0,0,0,0,-0.8462750947155602,-7.08369288843374,6.9245440579864574,1.4238846993742102,-0.2327863793020385,0.13949315198347903
1970-01-03 01:14:44.750,1970-01-03 01:14:44.750,1621.0,walking,0.0,1.0,-0.8713398000000001,0.4319439133999999,9.05534936,0.8248193629999999,0.296845782,-0.310854024,1,0,0,0,0,0,0,0,0,0,0,0,0,0,0,0,0,0,-0.8573116669739098,-3.2552568169530884,8.15892922151007,1.1363235333130979,-0.020752227307598015,-0.08173913506622682
1970-01-03 01:14:45.000,1970-01-03 01:14:45.000,1621.0,walking,0.0,1.0,0.751929,0.03259106399999991,5.36780028,-3.28539652,0.347338524,-3.3072297400000004,1,0,0,0,0,0,0,0,0,0,0,0,0,0,0,0,0,0,-0.14872555067207893,-1.5804399333542296,6.54201554926703,-0.9861745687033137,0.12661006489263782,-1.666255959415233
1970-01-03 01:14:45.250,1970-01-03 01:14:45.250,1621.0,walking,0.0,1.0,13.083863699999998,-4.8463131200000005,0.58849474,-2.77172562,0.4321330339999999,-4.63050116,1,0,0,0,0,0,0,0,0,0,0,0,0,0,0,0,0,0,5.677891307793804,-3.2440629323740873,3.093113947426094,-1.8432683460668224,0.24892383301535267,-3.1224364654740393
1970-01-03 01:14:45.500,1970-01-03 01:14:45.500,1621.0,walking,0.0,1.0,10.337354799999998,-4.93202562,-0.4118026840000001,-2.0251910000000004,0.8120111299999999,-1.532499268,1,0,0,0,0,0,0,0,0,0,0,0,0,0,0,0,0,0,7.729561476901844,-4.103904444817491,1.0626998595299924,-1.9305942336977437,0.47435148270989247,-2.3413825229146674
1970-01-03 01:14:45.750,1970-01-03 01:14:45.750,1621.0,walking,0.0,1.0,8.2012482,-4.7701775,1.6773777199999995,-0.220424238,-0.00525255280000001,-0.574187374,1,0,0,0,0,0,0,0,0,0,0,0,0,0,0,0,0,0,7.937256106534572,-4.443301270729334,1.4187855190081093,-1.1096846132408609,0.2823457094259334,-1.4732509003659646
1970-01-03 01:14:46.000,1970-01-03 01:14:46.000,1621.0,walking,0.0,1.0,12.1890306,-4.42158184,-0.04405332599999999,0.908542992,-0.7049182340000001,2.40684862,1,0,0,0,0,0,0,0,0,0,0,0,0,0,0,0,0,0,9.809411402448994,-4.432237429131367,0.571356345029732,-0.14090229483577388,-0.11289777786160132,0.432841464465479
1970-01-03 01:14:46.250,1970-01-03 01:14:46.250,1621.0,walking,0.0,1.0,9.5803083,-2.22705652,1.1042057859999999,1.0809028,-0.13819753799999995,1.623240054,1,0,0,0,0,0,0,0,0,0,0,0,0,0,0,0,0,0,9.708531824280474,-3.30892686847441,0.8800384074791429,0.4455841770136001,-0.12302634282827742,1.0176227915874714
1970-01-03 01:14:46.500,1970-01-03 01:14:46.500,1621.0,walking,0.0,1.0,9.7876461,-3.2172983000000004,2.54168456,-0.78906239,0.480934132,-2.63930902,1,0,0,0,0,0,0,0,0,0,0,0,0,0,0,0,0,0,9.743367766632502,-3.262251617506763,1.8426375941672828,-0.1470664003316643,0.11876457544835657,-0.7788387443756788
1970-01-03 01:14:46.750,1970-01-03 01:14:46.750,1621.0,walking,0.0,1.0,8.740901,-5.081902620000001,0.33614591094,-1.327873948,0.98523162,-1.61111576,1,0,0,0,0,0,0,0,0,0,0,0,0,0,0,0,0,0,9.301958312626905,-4.189174680155459,0.969920131989202,-0.7138733693365048,0.4656479752613731,-1.1876934497856422
1970-01-03 01:14:47.000,1970-01-03 01:14:47.000,1621.0,walking,0.0,1.0,11.568453600000002,-5.059397259999999,0.30119057600000004,1.40538156,-1.19131664,2.081729936,1,0,0,0,0,0,0,0,0,0,0,0,0,0,0,0,0,0,10.299949026419991,-4.6324626473075075,0.5825220743428061,0.3034037207480308,-0.19770500341320824,0.4184052473762876
1970-01-03 01:14:47.250,1970-01-03 01:14:47.250,1621.0,walking,0.0,1.0,10.486753000000002,-1.192282558,1.70371396,1.1060373260000005,-0.18527239,2.48099078,1,0,0,0,0,0,0,0,0,0,0,0,0,0,0,0,0,0,10.382203368292364,-2.8800483305581737,1.232033646266764,0.6886810274757775,-0.19272770485258772,1.4316469615555703
1970-01-03 01:14:47.500,1970-01-03 01:14:47.500,1621.0,walking,0.0,1.0,10.92776512,-3.27523794,2.63074884,-0.626723012,0.6473404119999999,-3.411413,1,0,0,0,0,0,0,0,0,0,0,0,0,0,0,0,0,0,10.622426806094921,-3.0813564253412364,2.0423156448280317,0.0572655455788148,0.14358708281864246,-0.947498048240144
1970-01-03 01:14:47.750,1970-01-03 01:14:47.750,1621.0,walking,0.0,1.0,8.840021340000002,-4.72133584,0.31028855600000005,-2.10041214,0.96777595,-1.49564139,1,0,0,0,0,0,0,0,0,0,0,0,0,0,0,0,0,0,9.837592100589209,-3.9167555656021955,1.0389444974952953,-0.9784550922705947,0.4735447298532239,-1.2167725204663538
1970-01-03 01:14:48.000,1970-01-03 01:14:48.000,1621.0,walking,0.0,1.0,11.5368498,-5.47119998,-0.283952344,1.6352556999999996,-1.6161267920000004,1.980955634,1,0,0,0,0,0,0,0,0,0,0,0,0,0,0,0,0,0,10.585814895404496,-4.7085834907660615,0.27258435459227537,0.27616891079820427,-0.36303912626743834,0.35410602210401887
1970-01-03 01:14:48.250,1970-01-03 01:14:48.250,1621.0,walking,0.0,1.0,10.3785356,-1.65579998,2.04752134,1.445854454,-0.3316357200000001,2.62394914,1,0,0,0,0,0,0,0,0,0,0,0,0,0,0,0,0,0,10.494544851938164,-3.1535074825679525,1.300813402536821,0.8376371230385663,-0.3504670124144473,1.4691625790699245
1970-01-03 01:14:48.500,1970-01-03 01:14:48.500,1621.0,walking,0.0,1.0,10.4019984,-3.3647811199999986,2.2629994800000004,-1.4495301,0.9517876540000001,-2.8576885119999997,1,0,0,0,0,0,0,0,0,0,0,0,0,0,0,0,0,0,10.453794547803465,-3.261129460084935,1.858212189953375,-0.2602406309373454,0.17088058920930121,-0.6563956749971414
1970-01-03 01:14:48.750,1970-01-03 01:14:48.750,1621.0,walking,0.0,1.0,9.21447432,-5.1546863,-0.250912362,-1.74567455,1.49976128,-1.7683491000000002,1,0,0,0,0,0,0,0,0,0,0,0,0,0,0,0,0,0,9.90809316235209,-4.225700003995266,0.6363867737522082,-0.9732732224651178,0.7028876930185144,-1.2026408944907887
1970-01-03 01:14:49.000,1970-01-03 01:14:49.000,1621.0,walking,0.0,1.0,11.20357688,-5.9667996400000005,-0.516668726,1.17357253,-1.3971124494999998,1.624092046,1,0,0,0,0,0,0,0,0,0,0,0,0,0,0,0,0,0,10.47852486848164,-5.112609415023619,-0.0315835098124313,0.05724791957469899,-0.13783116887510471,0.18598691923643806
1970-01-03 01:14:49.250,1970-01-03 01:14:49.250,1621.0,walking,0.0,1.0,10.0256298,-2.30223448,1.42455002,1.502526202,-0.946505556,2.6603812600000003,1,0,0,0,0,0,0,0,0,0,0,0,0,0,0,0,0,0,10.279104714958125,-3.681015352073503,0.8119612650526778,0.7510051577101209,-0.46157771345233983,1.4015289910422095
1970-01-03 01:14:49.500,1970-01-03 01:14:49.500,1621.0,walking,0.0,1.0,10.24781146,-2.72505048,3.30256182,-0.6970281000000002,0.66011962,-2.47589774,1,0,0,0,0,0,0,0,0,0,0,0,0,0,0,0,0,0,10.265325503637746,-3.194050560095766,2.2547774203919126,0.0559254678481389,-0.012514855658825319,-0.5032503705200584
1970-01-03 01:14:49.750,1970-01-03 01:14:49.750,1621.0,walking,0.0,1.0,9.0301208,-4.15438886,0.12354081200000006,-2.0546010600000004,1.36937266,-1.60387226,1,0,0,0,0,0,0,0,0,0,0,0,0,0,0,0,0,0,9.72143614346177,-3.683243166251083,1.0201423928813456,-0.9571617954964586,0.5407131222966843,-1.0439290354046107
1970-01-03 01:14:50.000,1970-01-03 01:14:50.000,1621.0,walking,0.0,1.0,10.5844364,-6.4489917000000005,-0.5200206100000001,0.29025961999999994,-0.9767667679999998,0.760162562,1,0,0,0,0,0,0,0,0,0,0,0,0,0,0,0,0,0,10.101435251198447,-5.092104717930249,0.12791898792228973,-0.3583790725894045,-0.06679823649809413,-0.15767209761406487
1970-01-03 01:14:50.250,1970-01-03 01:14:50.250,1621.0,walking,0.0,1.0,9.4356984,-2.5775676600000006,1.1027693079999998,2.50537064,-1.342365807,2.1748337600000003,1,0,0,0,0,0,0,0,0,0,0,0,0,0,0,0,0,0,9.808295867808472,-3.811209308364594,0.6926541665186005,1.0162677007139815,-0.5774618882445077,0.9881674754036311
1970-01-03 01:14:50.500,1970-01-03 01:14:50.500,1621.0,walking,0.0,1.0,10.000250999999999,-2.80693214,3.17710568,-0.654203176,0.3759049092,-1.2389126440000002,1,0,0,0,0,0,0,0,0,0,0,0,0,0,0,0,0,0,9.892818099652219,-3.299634472864189,2.131908180484366,0.21441430910124581,-0.19578884695868087,-0.10588190279404941
1970-01-03 01:14:50.750,1970-01-03 01:14:50.750,1621.0,walking,0.0,1.0,9.32939596,-3.6305375,1.0395623976000001,-2.0886879,1.096662296,-1.903850712,1,0,0,0,0,0,0,0,0,0,0,0,0,0,0,0,0,0,9.644730343927696,-3.468195189003804,1.4991072866710626,-0.8911124858687685,0.32163398586761943,-0.9891310274329677
1970-01-03 01:14:51.000,1970-01-03 01:14:51.000,1621.0,walking,0.0,1.0,10.3713526,-6.487777879999999,-0.6751648659999999,-0.1605596160000001,-0.46671924,0.3826328399999999,1,0,0,0,0,0,0,0,0,0,0,0,0,0,0,0,0,0,9.964678858356514,-5.006358745030943,0.23954156657581804,-0.5404351351685026,0.006022857575906426,-0.31525433705471706
1970-01-03 01:14:51.250,1970-01-03 01:14:51.250,1621.0,walking,0.0,1.0,9.3179038,-2.78490546,1.14347070268,2.5279542,-1.407773046,2.36104192,1,0,0,0,0,0,0,0,0,0,0,0,0,0,0,0,0,0,9.679888621751768,-3.874759094662215,0.7631917787367444,0.9324419738096366,-0.5599794074176492,0.9994717327531734
1970-01-03 01:14:51.500,1970-01-03 01:14:51.500,1621.0,walking,0.0,1.0,9.9552403,-2.16624374,3.53910888,-0.413880746,0.3045343212,-1.1421866399999998,1,0,0,0,0,0,0,0,0,0,0,0,0,0,0,0,0,0,9.801132352678259,-3.0044480646187592,2.371293202005594,0.2861850138705646,-0.2138780118048727,-0.052614329105701185
1970-01-03 01:14:51.750,1970-01-03 01:14:51.750,1621.0,walking,0.0,1.0,9.139775300000002,-3.51226402,1.45711118,-1.1122711249,0.6782344100000001,-2.159940272,1,0,0,0,0,0,0,0,0,0,0,0,0,0,0,0,0,0,9.509921437945088,-3.2631275277547704,1.8417034475580025,-0.38509682022492886,0.14327230497690008,-1.0878346275487876
1970-01-03 01:14:52.000,1970-01-03 01:14:52.000,1621.0,walking,0.0,1.0,10.7247367,-6.05921574,-0.013407523999999994,-0.49505688,-0.6735861320000001,0.598455428,1,0,0,0,0,0,0,0,0,0,0,0,0,0,0,0,0,0,10.04483308003411,-4.687443855832452,0.7670292535929757,-0.4378794446525537,-0.18375066381365285,-0.2594474832704444
1970-01-03 01:14:52.250,1970-01-03 01:14:52.250,1621.0,walking,0.0,1.0,9.2355434,-2.65705508,0.6229712719999999,2.6619583600000003,-1.2903702680000002,2.2617593200000004,1,0,0,0,0,0,0,0,0,0,0,0,0,0,0,0,0,0,9.688483931045454,-3.653171764809306,0.6835758259965483,1.0500935383110583,-0.6267772629874655,0.9790910845838899
1970-01-03 01:14:52.500,1970-01-03 01:14:52.500,1621.0,walking,0.0,1.0,10.3330454,-2.42529637,2.1921311,-0.47865419,0.2382842106,-0.837307942,1,0,0,0,0,0,0,0,0,0,0,0,0,0,0,0,0,0,9.972299175262979,-3.0276967966526254,1.5574887004317226,0.3162695870168163,-0.2804565779536829,0.08678813430393317
1970-01-03 01:14:52.750,1970-01-03 01:14:52.750,1621.0,walking,0.0,1.0,8.992771300000003,-2.71020644,2.0384233400000005,-0.5197685200000001,0.3671726836000001,-2.09772881,1,0,0,0,0,0,0,0,0,0,0,0,0,0,0,0,0,0,9.540990185360545,-2.8659684825464065,1.8360962936755607,-0.08504241050218758,-0.021183200581616046,-0.9863520879936185
1970-01-03 01:14:53.000,1970-01-03 01:14:53.000,1621.0,walking,0.0,1.0,9.910708,-5.302169279999998,0.9500192340000002,-0.9241416800000002,-0.263892098,0.200259596,1,0,0,0,0,0,0,0,0,0,0,0,0,0,0,0,0,0,9.703785733020041,-4.106959686426692,1.3227878405570939,-0.4878238204629035,-0.1183498286198205,-0.4034311008840701
1970-01-03 01:14:53.250,1970-01-03 01:14:53.250,1621.0,walking,0.0,1.0,8.740901220000001,-3.65064888,1.06398324,2.05092388,-1.20600316,1.85631968,1,0,0,0,0,0,0,0,0,0,0,0,0,0,0,0,0,0,9.279805169737722,-3.8745167175283766,1.1728611403977836,0.7308166462343244,-0.5537834553817269,0.7066676494044168
1970-01-03 01:14:53.500,1970-01-03 01:14:53.500,1621.0,walking,0.0,1.0,10.4465306,-2.22226814,2.32429098,-0.7451854440000001,0.571076816,0.5801328920000001,1,0,0,0,0,0,0,0,0,0,0,0,0,0,0,0,0,0,9.79354142018733,-3.0328677199148917,1.8398896716082893,0.02231146313618504,-0.10345433131050946,0.644507668138425
1970-01-03 01:14:53.750,1970-01-03 01:14:53.750,1621.0,walking,0.0,1.0,9.4500638,-2.75617506,1.9665973396,-1.61699672,0.8356863612000001,-2.5400266,1,0,0,0,0,0,0,0,0,0,0,0,0,0,0,0,0,0,9.642300187491989,-2.891921548824386,1.913291985841512,-0.764583346387729,0.2725234050541776,-0.9198894481814144
1970-01-03 01:14:54.000,1970-01-03 01:14:54.000,1621.0,walking,0.0,1.0,9.5142284,-5.78531898,0.06751649999999998,-1.412464222,0.304755382,-0.981544778,1,0,0,0,0,0,0,0,0,0,0,0,0,0,0,0,0,0,9.58590738370893,-4.365806846924292,0.8440258799131632,-1.07557680091238,0.28542723128963987,-0.9501775320937323
1970-01-03 01:14:54.250,1970-01-03 01:14:54.250,1621.0,walking,0.0,1.0,9.01719212,-4.68015554,2.110728232,1.0889898720000002,-1.34470032,2.15161096,1,0,0,0,0,0,0,0,0,0,0,0,0,0,0,0,0,0,9.335488712866182,-4.525934953880281,1.5778323122588107,-0.03654934034591917,-0.3671817567461715,0.5735707761934109
1970-01-03 01:14:54.500,1970-01-03 01:14:54.500,1621.0,walking,0.0,1.0,10.12139786,-2.13176724,2.15238726,-0.18677014,0.4191634420000001,-0.74612133,1,0,0,0,0,0,0,0,0,0,0,0,0,0,0,0,0,0,9.681542852777971,-3.3063552774623393,1.9106745294025487,-0.10865778607726691,-0.05237452911482676,-0.07472575198823994
1970-01-03 01:14:54.750,1970-01-03 01:14:54.750,1621.0,walking,0.0,1.0,9.27337168,-2.6747722,2.305616188,-1.4297206499999997,0.855282738,-1.337130014,1,0,0,0,0,0,0,0,0,0,0,0,0,0,0,0,0,0,9.50181559193788,-2.9846293536415125,2.1394659947061707,-0.7427896015720615,0.3109990455035221,-0.6948797424549775
1970-01-03 01:14:55.000,1970-01-03 01:14:55.000,1621.0,walking,0.0,1.0,9.69570872,-5.56601019,-0.6186617200000001,-2.06632348,0.5175952,-0.695840832,1,0,0,0,0,0,0,0,0,0,0,0,0,0,0,0,0,0,9.587191053326586,-4.299574583428468,0.5416701189772011,-1.378107567831421,0.39370820990633837,-0.6953518778262789
1970-01-03 01:14:55.250,1970-01-03 01:14:55.250,1621.0,walking,0.0,1.0,9.71629898,-3.65735256,-0.20494366000000006,2.45061072,-1.944657,2.7358020000000005,1,0,0,0,0,0,0,0,0,0,0,0,0,0,0,0,0,0,9.644040312505005,-3.9724291328610386,0.10915337457244706,0.45973990409204135,-0.5424382381891107,0.9901966418847122
1970-01-03 01:14:55.500,1970-01-03 01:14:55.500,1621.0,walking,0.0,1.0,10.49058384,-2.537345054,2.0221427600000004,0.14346035600000012,0.15625857800000004,-0.018971812000000025,1,0,0,0,0,0,0,0,0,0,0,0,0,0,0,0,0,0,10.016792947047277,-3.2414029612984647,1.2173567316960192,0.30792054222109766,-0.26272035936353166,0.49444434214958405
1970-01-03 01:14:55.750,1970-01-03 01:14:55.750,1621.0,walking,0.0,1.0,9.8240384,-3.3197702000000007,1.6721105159999996,-0.970806396,0.9854606659999999,-2.6712672200000003,1,0,0,0,0,0,0,0,0,0,0,0,0,0,0,0,0,0,9.931918679845609,-3.2813228748681387,1.4807976841883657,-0.305889351426336,0.23697926804284786,-1.0607061448951138
1970-01-03 01:14:56.000,1970-01-03 01:14:56.000,1621.0,walking,0.0,1.0,9.9145387,-5.59809228,-1.6903063000000003,-2.0024084000000006,0.21570060400000016,-0.7599697100000001,1,0,0,0,0,0,0,0,0,0,0,0,0,0,0,0,0,0,9.924265730808365,-4.461476069238255,-0.35623723028914456,-1.1202463422450148,0.22846051617902202,-0.9129698794618066
1970-01-03 01:14:56.250,1970-01-03 01:14:56.250,1621.0,walking,0.0,1.0,10.180294900000002,-4.19461156,-0.185311223,3.321996204,-2.08527054,2.12604464,1,0,0,0,0,0,0,0,0,0,0,0,0,0,0,0,0,0,10.0370013732846,-4.325536323926552,-0.25721902246235706,1.0121028696349539,-0.697823892727407,0.5799409282637116
1970-01-03 01:14:56.500,1970-01-03 01:14:56.500,1621.0,walking,0.0,1.0,10.711807860000002,-1.5983390999999998,1.4480131699999998,-0.23556236,0.607720566,0.9382746679999998,1,0,0,0,0,0,0,0,0,0,0,0,0,0,0,0,0,0,10.33413452814863,-2.9363126877634134,0.7306297251277812,0.4132031192244292,-0.1751592516336622,0.755971779796063
1970-01-03 01:14:56.750,1970-01-03 01:14:56.750,1621.0,walking,0.0,1.0,9.2757658,-2.89886948,2.33434662,-0.747956794,0.64990904,-3.19963864,1,0,0,0,0,0,0,0,0,0,0,0,0,0,0,0,0,0,9.868109974465082,-2.917239281360577,1.659670140670764,-0.14417267347239782,0.15515046161785712,-1.1872151457041609
1970-01-03 01:14:57.000,1970-01-03 01:14:57.000,1621.0,walking,0.0,1.0,10.771663059999998,-5.8930580799999985,-0.40557777,-2.15751406,0.547642602,-1.248287188,1,0,0,0,0,0,0,0,0,0,0,0,0,0,0,0,0,0,10.26596527621873,-4.4331098800487965,0.4632626601764136,-1.110609544413868,0.31228165483243747,-1.2172166897582677
1970-01-03 01:14:57.250,1970-01-03 01:14:57.250,1621.0,walking,0.0,1.0,10.587309900000001,-4.5939643399999985,-0.458729066,2.747178992,-2.29171748,2.79247404,1,0,0,0,0,0,0,0,0,0,0,0,0,0,0,0,0,0,10.407460766196841,-4.515048634999216,-0.0708513213823827,0.7411921815646851,-0.7302093170554547,0.7525371096715929
1970-01-03 01:14:57.500,1970-01-03 01:14:57.500,1621.0,walking,0.0,1.0,10.59688642,-1.3249213359999998,1.9737799,0.4310810719999999,0.09937506199999999,1.0786766656000002,1,0,0,0,0,0,0,0,0,0,0,0,0,0,0,0,0,0,10.49086938528992,-2.8900102514669443,1.1136128221658517,0.5923337747352471,-0.39809161497123746,0.912752633268568
1970-01-03 01:14:57.750,1970-01-03 01:14:57.750,1621.0,walking,0.0,1.0,10.72760966,-2.9596822,2.3060949879999995,-0.9039077426,0.62156637,-3.6672895,1,0,0,0,0,0,0,0,0,0,0,0,0,0,0,0,0,0,10.59511162741242,-2.9255008835784597,1.8044230860163468,-0.12588665676355648,0.010120582185078275,-1.337185332498804
1970-01-03 01:14:58.000,1970-01-03 01:14:58.000,1621.0,walking,0.0,1.0,10.4087022,-6.017077840000002,-0.303584776,-2.2996171700000003,0.520579273,-1.012650492,1,0,0,0,0,0,0,0,0,0,0,0,0,0,0,0,0,0,10.513031084034616,-4.500338166351543,0.5832445722148505,-1.1693128629380922,0.21447878077478838,-1.177758138760797
1970-01-03 01:14:58.250,1970-01-03 01:14:58.250,1621.0,walking,0.0,1.0,10.2722328,-3.74402262,0.22170308800000002,2.11973832,-1.94976786,2.98549976,1,0,0,0,0,0,0,0,0,0,0,0,0,0,0,0,0,0,10.407002086855064,-4.115073971403693,0.3738019484338565,0.4094856055319902,-0.6519606422192126,0.8674353260222025
1970-01-03 01:14:58.500,1970-01-03 01:14:58.500,1621.0,walking,0.0,1.0,10.47430286,-1.6830938642000004,2.12317806,0.19054438,0.292614022,0.883093802,1,0,0,0,0,0,0,0,0,0,0,0,0,0,0,0,0,0,10.436636353548673,-2.8762328135702635,1.3872234271756252,0.30439023077379523,-0.2738074706297305,0.8751275123202795
1970-01-03 01:14:58.750,1970-01-03 01:14:58.750,1621.0,walking,0.0,1.0,10.978043,-3.3925539,1.444182486,-1.15381664,1.008893016,-3.47618112,1,0,0,0,0,0,0,0,0,0,0,0,0,0,0,0,0,0,10.675030126919198,-3.139244712971669,1.4202200850029545,-0.3955729313870028,0.2397117662312636,-1.2624454652998796
1970-01-03 01:14:59.000,1970-01-03 01:14:59.000,1621.0,walking,0.0,1.0,9.848459000000002,-5.48987462,-0.389776048,-2.2388932,0.635195074,-1.09552808,1,0,0,0,0,0,0,0,0,0,0,0,0,0,0,0,0,0,10.311071727549873,-4.336646529171787,0.3716811195837735,-1.2803968968350352,0.39804045656435827,-1.1804476039674048
1970-01-03 01:14:59.250,1970-01-03 01:14:59.250,1621.0,walking,0.0,1.0,12.077939600000002,-4.78981,-0.6713341526000001,2.11888442,-2.4088939,2.70384394,1,0,0,0,0,0,0,0,0,0,0,0,0,0,0,0,0,0,11.089064948440717,-4.567486325336939,-0.23254235207717444,0.3513137866487117,-0.725694014480442,0.7277040082394157
1970-01-03 01:14:59.500,1970-01-03 01:14:59.500,1621.0,walking,0.0,1.0,9.175208999999999,-1.95028678,1.3771448188000002,1.4098351140000005,-0.6959327129999999,1.6707503200000002,1,0,0,0,0,0,0,0,0,0,0,0,0,0,0,0,0,0,10.24634964683176,-3.234295069987172,0.6999567188700296,0.8594213609399701,-0.7137792964964723,1.1909739465235714
1970-01-03 01:14:59.750,1970-01-03 01:14:59.750,1621.0,walking,0.0,1.0,11.767650999999999,-3.5022082999999995,1.886152078,-1.7216149800000005,0.95905996,-3.5117611000000006,1,0,0,0,0,0,0,0,0,0,0,0,0,0,0,0,0,0,10.916213868655879,-3.3707689899681803,1.3871250384798977,-0.3795183617050837,-0.04407101610706354,-1.1192367515103532
1970-01-03 01:15:00.000,1970-01-03 01:15:00.000,1621.0,walking,0.0,1.0,8.45263938,-4.1768943200000015,-1.1348515840000002,-2.9762784799999995,1.6365596400000002,-0.94298247,1,0,0,0,0,0,0,0,0,0,0,0,0,0,0,0,0,0,9.831444766340187,-3.7814060209120353,-0.07386744450798144,-1.6260057966908725,0.6287564797249503,-1.032652145390109
1970-01-03 01:15:00.250,1970-01-03 01:15:00.250,1621.0,walking,0.0,1.0,11.10733054,-6.424571,-2.51582712,0.6929182100000001,-2.011331926,0.8021337880000001,1,0,0,0,0,0,0,0,0,0,0,0,0,0,0,0,0,0,10.393246874522752,-5.127823968606863,-1.4885057868549054,-0.512884291787572,-0.4281825771025136,-0.13131664706869495
1970-01-03 01:15:00.500,1970-01-03 01:15:00.500,1621.0,walking,0.0,1.0,9.6612325,-2.71355824,1.2033257648,1.682760616,-1.7019764279999996,2.35081518,1,0,0,0,0,0,0,0,0,0,0,0,0,0,0,0,0,0,10.070924104224723,-3.898006403217303,0.07088442226909919,0.541061229973566,-0.938136108498208,1.0880264808260773
1970-01-03 01:15:00.750,1970-01-03 01:15:00.750,1621.0,walking,0.0,1.0,11.1011055,-3.85224056,1.32064168,-0.686387416,1.42734436,-2.27179338,1,0,0,0,0,0,0,0,0,0,0,0,0,0,0,0,0,0,10.524537035269303,-3.874693462468836,0.7948744411990951,-0.04813423353200863,0.008865721692338457,-0.5624793481289223
1970-01-03 01:15:01.000,1970-01-03 01:15:01.000,1621.0,walking,0.0,1.0,9.3720126,-3.94944522,-0.9634267540000001,-1.7906441199999996,1.6559565000000005,-1.63327382,1,0,0,0,0,0,0,0,0,0,0,0,0,0,0,0,0,0,10.017053496635516,-3.9127717302147413,-0.22371741924132804,-0.8845675533922632,0.6682658028235938,-1.0885053350009275
1970-01-03 01:15:01.250,1970-01-03 01:15:01.250,1621.0,walking,0.0,1.0,10.233925500000002,-6.62568392,-1.4063541000000002,0.24145336999999994,-0.9371085694,0.41863856,1,0,0,0,0,0,0,0,0,0,0,0,0,0,0,0,0,0,10.112547428334949,-5.29471854690989,-0.9088241911579437,-0.3440590630325415,0.02556656277228353,-0.34812344164423126
1970-01-03 01:15:01.500,1970-01-03 01:15:01.500,1621.0,walking,0.0,1.0,9.833615199999999,-2.63024004,0.165199918,3.03351272,-1.6674563240000002,2.34570188,1,0,0,0,0,0,0,0,0,0,0,0,0,0,0,0,0,0,9.989727121056577,-3.9374435513358743,-0.2866371552402257,1.277230787259414,-0.6522220588045197,0.9752137270953766
1970-01-03 01:15:01.750,1970-01-03 01:15:01.750,1621.0,walking,0.0,1.0,9.645909300000001,-2.71547368,1.3460202280000002,-1.20261694,0.486719838,-0.8739533519999998,1,0,0,0,0,0,0,0,0,0,0,0,0,0,0,0,0,0,9.838336135768351,-3.3149768517670273,0.6591686632462014,0.08686325083627144,-0.19625545894676877,0.06681352512235739
1970-01-03 01:15:02.000,1970-01-03 01:15:02.000,1621.0,walking,0.0,1.0,10.0256299,-3.9901466800000014,0.602381128,-1.8662730000000003,1.23303786,-2.01250791,1,0,0,0,0,0,0,0,0,0,0,0,0,0,0,0,0,0,9.920805982490336,-3.658905706339203,0.6262713763719571,-0.8506741734285679,0.3759510756642427,-0.9546496232032267
1970-01-03 01:15:02.250,1970-01-03 01:15:02.250,1621.0,walking,0.0,1.0,10.5762962,-5.39937374,-1.0860098800000002,-0.47013182,-0.03676678939999993,-0.033672739999999965,1,0,0,0,0,0,0,0,0,0,0,0,0,0,0,0,0,0,10.209433429712405,-4.545493226394079,-0.3656609047949301,-0.6680076059727134,0.21072266416494104,-0.5022212831305534
1970-01-03 01:15:02.500,1970-01-03 01:15:02.500,1621.0,walking,0.0,1.0,9.0626819,-3.5745132,-0.5822698666,3.33690886,-1.710934,2.04444518,1,0,0,0,0,0,0,0,0,0,0,0,0,0,0,0,0,0,9.704492149906102,-4.050879787429335,-0.49114344702197626,1.2544178974749893,-0.5585977643607528,0.748824366029066
1970-01-03 01:15:02.750,1970-01-03 01:15:02.750,1621.0,walking,0.0,1.0,9.882935400000001,-2.125063545,1.441309414,-1.2699392399999998,0.6993428839999998,0.48788073,1,0,0,0,0,0,0,0,0,0,0,0,0,0,0,0,0,0,9.783064921017255,-3.069876564067616,0.6283352762565593,0.04268513685865072,-0.05499092741950984,0.6206362484749367
1970-01-03 01:15:03.000,1970-01-03 01:15:03.000,1621.0,walking,0.0,1.0,9.992589999999998,-3.6683659,1.2909535559999998,-1.1891922,1.08028147,-2.54450098,1,0,0,0,0,0,0,0,0,0,0,0,0,0,0,0,0,0,9.87532366849528,-3.3747447251311233,1.0121930264131114,-0.5486361574740894,0.3995066236209543,-0.9342321153966694
1970-01-03 01:15:03.250,1970-01-03 01:15:03.250,1621.0,walking,0.0,1.0,9.621009699999998,-5.68093182,-1.4891934740000001,-1.2179490700000002,0.40255089,-0.5405255400000001,1,0,0,0,0,0,0,0,0,0,0,0,0,0,0,0,0,0,9.763343364447282,-4.549507548848727,-0.4368714908142406,-0.8699173042681806,0.40072536661719416,-0.7408244323807618
1970-01-03 01:15:03.500,1970-01-03 01:15:03.500,1621.0,walking,0.0,1.0,10.4618534,-4.10794136,-1.016578066,3.71486452,-2.2378134600000004,1.90574766,1,0,0,0,0,0,0,0,0,0,0,0,0,0,0,0,0,0,10.070913427748525,-4.3245753482753,-0.7726981444472614,1.3308530794757898,-0.6555932896166745,0.5592996373408246
1970-01-03 01:15:03.750,1970-01-03 01:15:03.750,1621.0,walking,0.0,1.0,10.12666526,-0.60091476,1.630451352,-0.3018278000000001,0.370177524,0.8637059700000002,1,0,0,0,0,0,0,0,0,0,0,0,0,0,0,0,0,0,10.095462193495894,-2.427757179857346,0.6194572335091908,0.5471395115539133,-0.24493385750057994,0.7088387456479791
1970-01-03 01:15:04.000,1970-01-03 01:15:04.000,1621.0,walking,0.0,1.0,10.45706474,-3.5687671,1.17794722,-1.0168348471999995,0.86531512,-3.1335922600000004,1,0,0,0,0,0,0,0,0,0,0,0,0,0,0,0,0,0,10.25468416244333,-3.0089831669227505,0.9429929813557117,-0.20359381004295996,0.19954575783869988,-1.1787490534547689
1970-01-03 01:15:04.250,1970-01-03 01:15:04.250,1621.0,walking,0.0,1.0,9.5238052,-5.5870792,-0.502303532,-1.9431873420000003,0.679530588,-0.7086242640000001,1,0,0,0,0,0,0,0,0,0,0,0,0,0,0,0,0,0,9.93286132729485,-4.322255151024982,0.10572615531896745,-1.0386272152209988,0.3917039685469712,-0.9478010341345681
1970-01-03 01:15:04.500,1970-01-03 01:15:04.500,1621.0,walking,0.0,1.0,10.226263900000001,-3.71002498,-0.2901772339999999,1.9005006919999998,-1.58138824,2.04998446,1,0,0,0,0,0,0,0,0,0,0,0,0,0,0,0,0,0,10.062053353391818,-4.010387537282488,-0.12362246794963591,0.37220231997735653,-0.3982082639654787,0.5248560279381801
1970-01-03 01:15:04.750,1970-01-03 01:15:04.750,1621.0,walking,0.0,1.0,10.401519660000002,-1.650532692,1.43125378,0.5420758200000002,0.0037246939999999954,1.443635952,1,0,0,0,0,0,0,0,0,0,0,0,0,0,0,0,0,0,10.211528320523797,-2.8082867010038575,0.777124396252275,0.45374437990573563,-0.2372975069433682,0.9762051093371109
1970-01-03 01:15:05.000,1970-01-03 01:15:05.000,1621.0,walking,0.0,1.0,9.4974686,-3.27906872,1.925895868,-0.7590376579999999,0.8024591680000001,-2.76735434,1,0,0,0,0,0,0,0,0,0,0,0,0,0,0,0,0,0,9.89711135829416,-3.0481012189429024,1.4426128831161211,-0.12841087706701887,0.17896105645211807,-0.8628121077155559
1970-01-03 01:15:05.250,1970-01-03 01:15:05.250,1621.0,walking,0.0,1.0,9.7507756,-6.13152062,-0.16950947599999994,-1.3871182000000002,0.706799504,-1.129190688,1,0,0,0,0,0,0,0,0,0,0,0,0,0,0,0,0,0,9.83267620205218,-4.618783097922506,0.5087030967437971,-0.7326110256664218,0.39027710555547446,-0.993670133422349
1970-01-03 01:15:05.500,1970-01-03 01:15:05.500,1621.0,walking,0.0,1.0,10.4934564,-3.65112764,-0.31172506999999994,1.8661968,-1.61483354,2.2099872520000003,1,0,0,0,0,0,0,0,0,0,0,0,0,0,0,0,0,0,10.123633297702854,-4.125863150543745,0.03342533535797476,0.5148592887060832,-0.4124534843786477,0.5801211067337215
1970-01-03 01:15:05.750,1970-01-03 01:15:05.750,1621.0,walking,0.0,1.0,10.176703833333333,-1.6903563216666668,1.419761608333333,-0.19118490833333326,0.12243694666666663,1.0297452033333334,1,0,0,0,0,0,0,0,0,0,0,0,0,0,0,0,0,0,10.147001322385776,-2.8852254999863396,0.8365362504682498,0.17594650572862736,-0.19831422879507973,0.8009981940808966
1970-01-03 01:15:06.000,1970-01-03 01:15:06.000,1621.0,walking,0.0,1.0,10.5638462,-3.93316468,0.8049305916000001,-1.2876311616000002,1.43502916,-2.99191206,1,0,0,0,0,0,0,0,0,0,0,0,0,0,0,0,0,0,10.33054799551497,-3.419041587506614,0.8182269352118353,-0.5265947515896929,0.4555821839917862,-1.0622625994333006
1970-01-03 01:15:06.250,1970-01-03 01:15:06.250,1621.0,walking,0.0,1.0,9.7019338,-5.82410508,-1.6098612019999998,-0.7162233400000001,0.31330569799999985,-0.474053054,1,0,0,0,0,0,0,0,0,0,0,0,0,0,0,0,0,0,10.053754560172738,-4.644171640922481,-0.588375558508451,-0.6176195902501986,0.3986228942401692,-0.7733056535057578
1970-01-03 01:15:06.500,1970-01-03 01:15:06.500,1621.0,walking,0.0,1.0,11.857673199999999,-4.119433540000001,-0.7905653919999999,2.51877406,-2.28359994,3.25415934,1,0,0,0,0,0,0,0,0,0,0,0,0,0,0,0,0,0,10.848062121811846,-4.376872029667898,-0.7055050336074619,0.8879007383088895,-0.6751842775015915,1.2051797814906577
1970-01-03 01:15:06.750,1970-01-03 01:15:06.750,1621.0,walking,0.0,1.0,9.548705000000002,-1.81477494,1.51217778,-0.3003417165999999,0.291357282,0.68815042,1,0,0,0,0,0,0,0,0,0,0,0,0,0,0,0,0,0,10.275924981316491,-3.071749793085603,0.579208698015666,0.3175248864816035,-0.28823682660956745,0.9511899733410641
1970-01-03 01:15:07.000,1970-01-03 01:15:07.000,1621.0,walking,0.0,1.0,11.7231191,-4.34544616,0.3955221160000001,-1.038995416,1.56732994,-3.67048558,1,0,0,0,0,0,0,0,0,0,0,0,0,0,0,0,0,0,10.913158097109099,-3.720565727796868,0.4727982294300458,-0.33362707040279826,0.45462498183235284,-1.3192003009873892
1970-01-03 01:15:07.250,1970-01-03 01:15:07.250,1621.0,walking,0.0,1.0,10.2593039,-5.934238359999998,-1.56293487,-0.8444779920000001,0.5029174399999998,-0.769770464,1,0,0,0,0,0,0,0,0,0,0,0,0,0,0,0,0,0,10.62525093937351,-4.848201968161971,-0.7065111852087925,-0.5788438922101097,0.4739585060967719,-1.0492938107682344
1970-01-03 01:15:07.500,1970-01-03 01:15:07.500,1621.0,walking,0.0,1.0,11.4133092,-3.92310894,-0.7067683588,2.80405358,-1.89797712,3.28910006,1,0,0,0,0,0,0,0,0,0,0,0,0,0,0,0,0,0,10.972251289390677,-4.3769632469952695,-0.7066601526180266,1.0450023061924223,-0.47562760922645664,1.081934910218295
1970-01-03 01:15:07.750,1970-01-03 01:15:07.750,1621.0,walking,0.0,1.0,10.4905834,-1.0342651960000002,0.9097966479999999,-0.3182357640000001,0.232763732,0.5748062679999999,1,0,0,0,0,0,0,0,0,0,0,0,0,0,0,0,0,0,10.760161714958837,-2.674205882468703,0.22976060272822008,0.39062570027386556,-0.19202860199008265,0.8328088230840183
1970-01-03 01:15:08.000,1970-01-03 01:15:08.000,1621.0,walking,0.0,1.0,11.0316731,-3.85415608,1.3096283579999999,-1.394152516,0.975465586,-3.2916775199999995,1,0,0,0,0,0,0,0,0,0,0,0,0,0,0,0,0,0,10.8797146434974,-3.275267877872242,0.8553328933167922,-0.46609708992819554,0.27536868763445604,-1.193338109728419
1970-01-03 01:15:08.250,1970-01-03 01:15:08.250,1621.0,walking,0.0,1.0,10.6418974,-5.09961966,-0.725921974,-0.26156288842000003,0.27281636000000004,-0.38606224,1,0,0,0,0,0,0,0,0,0,0,0,0,0,0,0,0,0,10.77499808829005,-4.204585663073318,-0.060695226749535425,-0.3679173197335971,0.27434688296732035,-0.7967651985726374
1970-01-03 01:15:08.500,1970-01-03 01:15:08.500,1621.0,walking,0.0,1.0,8.87449756,-1.2334627400000004,1.22822548,1.8717360720000005,-1.023611258,1.7438274720000002,1,0,0,0,0,0,0,0,0,0,0,0,0,0,0,0,0,0,9.938163404595386,-2.691107212351164,0.68598237467216,0.7071529941384315,-0.24528065890213102,0.4512966581401867
1970-01-03 01:15:08.750,1970-01-03 01:15:08.750,1621.0,walking,0.0,1.0,11.329990800000001,-0.760847356,0.01388637199999998,-0.8289205899999998,0.15201137,-0.193675478,1,0,0,0,0,0,0,0,0,0,0,0,0,0,0,0,0,0,10.551017221529056,-1.7078403587567679,0.29663411383343913,-0.030187500851841298,-0.08622786413517697,0.1344551871071784
1970-01-03 01:15:09.000,1970-01-03 01:15:09.000,1621.0,walking,0.0,1.0,7.98098172,-3.2556055,2.53498077,-0.501884414,0.21273145200000004,-0.516663626,1,0,0,0,0,0,0,0,0,0,0,0,0,0,0,0,0,0,9.419370816279713,-2.4962658627096213,1.5933184793304584,-0.25660974156971716,0.03345818979186484,-0.1854058235041952
1970-01-03 01:15:09.250,1970-01-03 01:15:09.250,1621.0,walking,0.0,1.0,10.83247576,-3.5984552200000004,0.339018946,0.09082417400000002,0.0005387559999999958,-0.32406407280000005,1,0,0,0,0,0,0,0,0,0,0,0,0,0,0,0,0,0,10.041593771819683,-3.0577168064499283,0.8666970716202634,-0.08983577042304311,0.02027914860295223,-0.2535214559959078
1970-01-03 01:15:09.500,1970-01-03 01:15:09.500,1621.0,walking,0.0,1.0,6.925138540000002,-0.09813239999999936,0.3624821280000002,1.393429538,-0.759207842,1.44235741,1,0,0,0,0,0,0,0,0,0,0,0,0,0,0,0,0,0,8.669345964392503,-1.5501160567534853,0.5746030708911631,0.6221558710981295,-0.291782451957694,0.5795761800669862
1970-01-03 01:15:09.750,1970-01-03 01:15:09.750,1621.0,walking,0.0,1.0,11.269178199999999,-2.055631654,0.10917561199999999,-1.76060538,0.4270706256,0.15274826199999994,1,0,0,0,0,0,0,0,0,0,0,0,0,0,0,0,0,0,9.814112696116197,-1.807623721480056,0.30497883615094207,-0.5216085493210488,-0.003995174690412995,0.369897683201511
1970-01-03 01:15:10.000,1970-01-03 01:15:10.000,1621.0,walking,0.0,1.0,8.25152648,-3.15840092,2.1456835240000003,-0.10497142800000013,0.10109972200000003,-0.32321188,1,0,0,0,0,0,0,0,0,0,0,0,0,0,0,0,0,0,9.126069769167431,-2.4957044037643445,1.3713074065490554,-0.3216159060502851,0.03807875595829255,0.029408780793850453
1970-01-03 01:15:10.250,1970-01-03 01:15:10.250,1621.0,walking,0.0,1.0,10.2047159,-4.189823120000002,0.6100425979999999,-0.903924266,0.0007598019999999872,-0.6242556159999999,1,0,0,0,0,0,0,0,0,0,0,0,0,0,0,0,0,0,9.601022692074409,-3.3586818842381896,0.9303032374746127,-0.6011334696844777,0.02313840082421464,-0.29170274186464573
1970-01-03 01:15:10.500,1970-01-03 01:15:10.500,1621.0,walking,0.0,1.0,7.9450683999999985,-3.83835434,0.0009577019999999824,0.7357277999999998,-0.499483046,0.8008551660000001,1,0,0,0,0,0,0,0,0,0,0,0,0,0,0,0,0,0,8.871867454879334,-3.603025166534774,0.39192915651322036,0.040581837912654684,-0.18608906222169422,0.24501448334161624
1970-01-03 01:15:10.750,1970-01-03 01:15:10.750,1621.0,walking,0.0,1.0,10.985225900000001,-2.160976512,-0.03782839,0.8083793800000001,-0.042911786000000014,0.643196002,1,0,0,0,0,0,0,0,0,0,0,0,0,0,0,0,0,0,9.802428271477487,-2.86845115570491,0.1429686621998342,0.40913722502872235,-0.12876914517280505,0.44062047485830985
1970-01-03 01:15:11.000,1970-01-03 01:15:11.000,1621.0,walking,0.0,1.0,8.829965399999997,-4.74432016,1.153526368,-0.09752072200000014,-0.517595212,0.08499744199999999,1,0,0,0,0,0,0,0,0,0,0,0,0,0,0,0,0,0,9.374230318109403,-3.8240116267474975,0.7283893547522047,0.16593310796848892,-0.28443266731810557,0.26592126181328235
1970-01-03 01:15:11.250,1970-01-03 01:15:11.250,1621.0,walking,0.0,1.0,5.61024326,-6.97188548,-1.025197134,-0.8289336900000001,-0.318386496,0.976410688,1,0,0,0,0,0,0,0,0,0,0,0,0,0,0,0,0,0,7.716859231315848,-5.427526389415467,-0.2874712546095639,-0.3116192682748299,-0.2980258201705853,0.6149479927915651
1970-01-03 01:15:11.500,1970-01-03 01:15:11.500,1621.0,walking,0.0,1.0,6.9146041,-6.3848269800000015,-2.7949910200000003,0.064600298,-0.3995426123,-0.6204206520000001,1,0,0,0,0,0,0,0,0,0,0,0,0,0,0,0,0,0,7.3636076617710815,-5.915171655561458,-1.7400888179403002,-0.1310277129382465,-0.33866727928670637,0.008075239509141019
1970-01-03 01:15:11.750,1970-01-03 01:15:11.750,1621.0,walking,0.0,1.0,7.544279299999999,-5.1321807800000006,-3.797203904,-0.915229958,-0.5923554692,-0.7614616599999999,1,0,0,0,0,0,0,0,0,0,0,0,0,0,0,0,0,0,7.443161500732047,-5.516319112738386,-2.9317849769998388,-0.5074576483932656,-0.44022939600097427,-0.3699584710382098
1970-01-03 01:15:12.000,1970-01-03 01:15:12.000,1621.0,walking,0.0,1.0,8.47753886,-2.436788546,-4.221456399999999,0.3019374900000001,-0.08464378100000003,0.2703534644,1,0,0,0,0,0,0,0,0,0,0,0,0,0,0,0,0,0,7.8986220176719675,-3.9476182626643856,-3.6788975517621063,-0.11893471974383651,-0.29787344003985533,-0.05540631252204642
1970-01-03 01:15:12.250,1970-01-03 01:15:12.250,1621.0,walking,0.0,1.0,4.31019154,-6.76933588,-5.12742218,-1.59082435,0.62290486,1.69525117,1,0,0,0,0,0,0,0,0,0,0,0,0,0,0,0,0,0,6.318552593139399,-5.384990140837997,-4.518034522834423,-0.8254658665733271,0.07075303531082094,0.8046012488102895
1970-01-03 01:15:12.500,1970-01-03 01:15:12.500,1621.0,walking,0.0,1.0,6.500886060000001,-4.192696099999999,-5.17386988,0.4512813660000001,-0.603843012,-0.605720222,1,0,0,0,0,0,0,0,0,0,0,0,0,0,0,0,0,0,6.398838220130903,-4.777640205077996,-4.897963037538812,-0.21260627421064338,-0.19931629324287725,0.11178320654920781
1970-01-03 01:15:12.750,1970-01-03 01:15:12.750,1621.0,walking,0.0,1.0,7.42648444,-5.76808078,-4.34882798,0.898903936,0.08858154399999997,-0.375410106,1,0,0,0,0,0,0,0,0,0,0,0,0,0,0,0,0,0,6.851334834314439,-5.282166735023748,-4.579846528010905,0.3209368244743388,-0.08405861526221187,-0.12754968782547663
1970-01-03 01:15:13.000,1970-01-03 01:15:13.000,1621.0,walking,0.0,1.0,9.5051306,-3.31977016,-2.60010313,-0.1742456864000001,0.6333617699999999,-0.8615968299999999,1,0,0,0,0,0,0,0,0,0,0,0,0,0,0,0,0,0,8.019862954416572,-4.282529543788864,-3.4329722100788413,0.08324110623247785,0.20315509259271397,-0.4881491039621684
1970-01-03 01:15:13.250,1970-01-03 01:15:13.250,1621.0,walking,0.0,1.0,6.60623104,-4.62796192,-3.7593754999999995,-0.96701698,0.58116647,-0.396289292,1,0,0,0,0,0,0,0,0,0,0,0,0,0,0,0,0,0,7.397407994370152,-4.458491546633957,-3.6220591571814227,-0.4208999907436025,0.3544890199678933,-0.44302312489742063
1970-01-03 01:15:13.500,1970-01-03 01:15:13.500,1621.0,walking,0.0,1.0,10.0294608,-3.226875,-2.95540254,1.3062557460000002,0.24965883100000003,-0.6811409900000001,1,0,0,0,0,0,0,0,0,0,0,0,0,0,0,0,0,0,8.556362156274663,-3.8311109166293926,-3.2358619993347393,0.40816303927880615,0.3125210658156334,-0.5599981384263045
1970-01-03 01:15:13.750,1970-01-03 01:15:13.750,1621.0,walking,0.0,1.0,8.91136832,-1.67112286,-2.20218673,2.52065482,-0.63322832,-0.014924607999999971,1,0,0,0,0,0,0,0,0,0,0,0,0,0,0,0,0,0,8.71267965543758,-2.730821451989988,-2.6370492844886084,1.4221937535059341,-0.06610239291182313,-0.29223168663723365
1970-01-03 01:15:14.000,1970-01-03 01:15:14.000,1621.0,walking,0.0,1.0,11.00485816,-2.027380092,-2.6853366499999995,-1.118926864,-0.321746336,0.6721709260000001,1,0,0,0,0,0,0,0,0,0,0,0,0,0,0,0,0,0,9.721979141475007,-2.372491115362263,-2.665022339325359,0.20241421201865317,-0.16844747743137872,0.181529474582372
1970-01-03 01:15:14.250,1970-01-03 01:15:14.250,1621.0,walking,0.0,1.0,5.435945200000001,-4.227172693999998,-6.320213580000001,-3.39901576,-1.02823501,0.594193584,1,0,0,0,0,0,0,0,0,0,0,0,0,0,0,0,0,0,7.834738560904211,-3.3172587562042417,-4.78249131658278,-1.5263311381579763,-0.5126567584381112,0.3842500187969349
1970-01-03 01:15:14.500,1970-01-03 01:15:14.500,1621.0,walking,0.0,1.0,7.415471139999998,0.9979332000000001,-7.714596900000001,-0.7298890901000001,-0.36478835439999996,-0.398632884,1,0,0,0,0,0,0,0,0,0,0,0,0,0,0,0,0,0,7.650125328725707,-1.1191168038042112,-6.481073282973656,-1.1440259077120647,-0.4534587839632241,-0.0003398859025617873
1970-01-03 01:15:14.750,1970-01-03 01:15:14.750,1621.0,walking,0.0,1.0,4.8943768,1.61515836,-7.301836339999999,-0.037468008000000066,-0.01495418,-1.08210654,1,0,0,0,0,0,0,0,0,0,0,0,0,0,0,0,0,0,6.436705087948962,0.27371227690059685,-6.956545129278593,-0.6128599853095459,-0.27790685096994094,-0.531755953669808
1970-01-03 01:15:15.000,1970-01-03 01:15:15.000,1621.0,walking,0.0,1.0,6.5827678800000005,3.6301185174359993,-8.179071779999997,0.02708701199999997,-0.14299896,0.3170117839999999,1,0,0,0,0,0,0,0,0,0,0,0,0,0,0,0,0,0,6.501019971819072,1.9834525680219097,-7.6647601542962125,-0.3056749409664755,-0.2238975196757543,-0.11480024016455254
1970-01-03 01:15:15.250,1970-01-03 01:15:15.250,1621.0,walking,0.0,1.0,4.31019152,0.5808632539999999,-7.2343198599999985,0.007275012800000003,-0.2239622568,0.6235948820000001,1,0,0,0,0,0,0,0,0,0,0,0,0,0,0,0,0,0,5.536347259094964,1.268979034846029,-7.415404040556308,-0.1554538355010655,-0.22392343887471733,0.24793511643968202
1970-01-03 01:15:15.500,1970-01-03 01:15:15.500,1621.0,walking,0.0,1.0,5.57959738,1.8991107,-9.71758596,0.08482674400000002,-0.04947275199999997,-0.62446891,1,0,0,0,0,0,0,0,0,0,0,0,0,0,0,0,0,0,5.555391335046408,1.5899656339666728,-8.749068231527106,-0.04011521983513899,-0.15408345343398538,-0.18063189534443252
1970-01-03 01:15:15.750,1970-01-03 01:15:15.750,1621.0,walking,0.0,1.0,3.603423252,2.61162516,-7.9932817,0.011111241600000009,0.35085219100000004,-1.2764107506,1,0,0,0,0,0,0,0,0,0,0,0,0,0,0,0,0,0,4.695894399703828,2.1103950283775195,-8.31123775005427,-0.01552567892485758,0.048063634162007124,-0.7189313831838362
1970-01-03 01:15:16.000,1970-01-03 01:15:16.000,1621.0,walking,0.0,1.0,6.23991814,4.103212938,-8.924626400000001,0.036678117999999996,0.06770393959999997,0.5671358646,1,0,0,0,0,0,0,0,0,0,0,0,0,0,0,0,0,0,5.375764032226453,3.125528643776427,-8.666576546419828,0.009532998363614417,0.0559264789813257,-0.08715301539530018
1970-01-03 01:15:16.250,1970-01-03 01:15:16.250,1621.0,walking,0.0,1.0,4.49167208,0.16522983279999998,-6.8124613400000005,-0.3195428916,-0.229084688,1.11084683,1,0,0,0,0,0,0,0,0,0,0,0,0,0,0,0,0,0,4.986477749223021,1.6175639754627047,-7.5924792245293755,-0.14842881745350017,-0.058175540563228004,0.5013624098655503
1970-01-03 01:15:16.500,1970-01-03 01:15:16.500,1621.0,walking,0.0,1.0,6.0134264800000015,2.67770522,-9.2325207,0.08441049200000003,0.06087134399999997,-0.428247224,1,0,0,0,0,0,0,0,0,0,0,0,0,0,0,0,0,0,5.438667101404849,2.1575958241582134,-8.54256289164337,-0.03666213548911543,-0.010516039282591289,0.0446932514045601
1970-01-03 01:15:16.750,1970-01-03 01:15:16.750,1621.0,walking,0.0,1.0,3.78681908,2.2716485,-7.45602308,-0.028932423999999998,0.15823443799999998,-0.7431393720000001,1,0,0,0,0,0,0,0,0,0,0,0,0,0,0,0,0,0,4.711319925135685,2.215693764901147,-7.913125532945842,-0.03295174744939125,0.057041909368168886,-0.3423282021414276
1970-01-03 01:15:17.000,1970-01-03 01:15:17.000,1621.0,walking,0.0,1.0,7.447074599999999,3.3404200060000004,-8.840350400000002,0.17624240279999998,-0.16263152199999995,0.422046904,1,0,0,0,0,0,0,0,0,0,0,0,0,0,0,0,0,0,5.915936304545658,2.7886249251467383,-8.450270956865825,0.06746486915104098,-0.030902654956233594,0.03316977660961823
1970-01-03 01:15:17.250,1970-01-03 01:15:17.250,1621.0,walking,0.0,1.0,3.9994241,-0.1828870732,-7.09354072,-0.031058055999999994,-0.3405306792,1.029673676,1,0,0,0,0,0,0,0,0,0,0,0,0,0,0,0,0,0,5.072051424007063,1.2749483036975822,-7.664310951428689,0.020172250652755297,-0.15485985003712063,0.522700644944767
1970-01-03 01:15:17.500,1970-01-03 01:15:17.500,1621.0,walking,0.0,1.0,5.83386144,1.919221992,-9.0936571,-0.02957654000000002,0.08942734199999999,-0.4910978160000001,1,0,0,0,0,0,0,0,0,0,0,0,0,0,0,0,0,0,5.407494066992401,1.6031388097256132,-8.492337881816242,-0.003707983987868268,-0.05706135747001058,0.02467386603273436
1970-01-03 01:15:17.750,1970-01-03 01:15:17.750,1621.0,walking,0.0,1.0,4.26326506,1.0783783800000002,-8.045475540000002,0.122756274,0.13374234880000005,-0.616159834,1,0,0,0,0,0,0,0,0,0,0,0,0,0,0,0,0,0,4.903663433885139,1.3358279240740683,-8.233468744977872,0.05699693126059169,0.019325432856192967,-0.29013461850447037
1970-01-03 01:15:18.000,1970-01-03 01:15:18.000,1621.0,walking,0.0,1.0,6.8231457,3.42852664,-8.726865,-0.011269322599999998,0.0001848219999999845,0.363457102,1,0,0,0,0,0,0,0,0,0,0,0,0,0,0,0,0,0,5.748856227388259,2.401840485793005,-8.519295324519204,0.024228010871303565,0.011662637054421636,0.03094121674424294
1970-01-03 01:15:18.250,1970-01-03 01:15:18.250,1621.0,walking,0.0,1.0,4.20867736,-0.27769749,-6.84502262,-0.0660277536,-0.129770784,0.570757504,1,0,0,0,0,0,0,0,0,0,0,0,0,0,0,0,0,0,5.0706795923962105,1.036894287562607,-7.549381591967771,-0.01909623464787156,-0.04495914190309173,0.29612505888420865
1970-01-03 01:15:18.500,1970-01-03 01:15:18.500,1621.0,walking,0.0,1.0,5.7385723,2.29846362,-8.685205999999999,0.033890861799999936,0.32744629000000003,-1.00817746,1,0,0,0,0,0,0,0,0,0,0,0,0,0,0,0,0,0,5.364768218667612,1.6795327649565248,-8.20737005907324,0.00633843994163014,0.10413049475014824,-0.3446113810859937
1970-01-03 01:15:18.750,1970-01-03 01:15:18.750,1621.0,walking,0.0,1.0,4.6927848600000015,2.308519172,-8.224561699999999,0.16470320400000002,0.21495811199999998,-0.79043738,1,0,0,0,0,0,0,0,0,0,0,0,0,0,0,0,0,0,5.068878272067703,1.9999359629214208,-8.217329249534105,0.0823561220748374,0.1484994775526865,-0.5636226606013474
1970-01-03 01:15:19.000,1970-01-03 01:15:19.000,1621.0,walking,0.0,1.0,6.25763526,3.86427152,-8.22168858,0.08331294159999998,-0.105892609,0.3517391320000001,1,0,0,0,0,0,0,0,0,0,0,0,0,0,0,0,0,0,5.592315580578851,2.9496211625309896,-8.219854450176793,0.08281541207369805,0.046655570641072036,-0.11395272176279303
1970-01-03 01:15:19.250,1970-01-03 01:15:19.250,1621.0,walking,0.0,1.0,4.33987974,0.25620951199999986,-6.700891779999999,0.07563697280000001,-0.232648693,0.714568214,1,0,0,0,0,0,0,0,0,0,0,0,0,0,0,0,0,0,5.040838827839015,1.5776077807659825,-7.339912601633432,0.0793696448843898,-0.0651617322556596,0.29305678159896037
1970-01-03 01:15:19.500,1970-01-03 01:15:19.500,1621.0,walking,0.0,1.0,6.1858091800000015,2.2520160860000003,-9.11233168,0.02855172800000002,0.11249804199999998,-0.397567868,1,0,0,0,0,0,0,0,0,0,0,0,0,0,0,0,0,0,5.544995904959015,1.9211487309949775,-8.366682839442413,0.054976211907794684,0.005962988117416565,-0.046211412027831744
1970-01-03 01:15:19.750,1970-01-03 01:15:19.750,1621.0,walking,0.0,1.0,4.61664934,1.381005452,-8.3179356,0.08628668440000001,0.17300932028000002,-0.911877514,1,0,0,0,0,0,0,0,0,0,0,0,0,0,0,0,0,0,5.136223220636636,1.6460018286704783,-8.33844354173765,0.07000575266523162,0.07283869801624099,-0.47146842306736214
1970-01-03 01:15:20.000,1970-01-03 01:15:20.000,1621.0,walking,0.0,1.0,6.68763394,3.73498452,-8.586564999999998,-0.162985194,-0.12419945,0.573314154,1,0,0,0,0,0,0,0,0,0,0,0,0,0,0,0,0,0,5.819345494053032,2.7101215212347607,-8.482181437373264,-0.04183371771431306,-0.006044003519560789,0.0417792429437438
1970-01-03 01:15:20.250,1970-01-03 01:15:20.250,1621.0,walking,0.0,1.0,4.44235144,-0.10244192200000002,-6.901525799999999,-0.08351966480000003,-0.208989168,0.9248513608,1,0,0,0,0,0,0,0,0,0,0,0,0,0,0,0,0,0,5.213022917229073,1.2774126758525828,-7.566500563279291,-0.06184365657863412,-0.08729153556272116,0.4755869290275237
1970-01-03 01:15:20.500,1970-01-03 01:15:20.500,1621.0,walking,0.0,1.0,6.354839780000002,2.2572832640000002,-8.712499959999999,-0.06690154599999999,0.08417159299999999,-0.42611696159999995,1,0,0,0,0,0,0,0,0,0,0,0,0,0,0,0,0,0,5.715791468785062,1.7765549036109554,-8.23038301022654,-0.0642715281486444,-0.01864759557034454,0.032626408929490036
1970-01-03 01:15:20.750,1970-01-03 01:15:20.750,1621.0,walking,0.0,1.0,4.6200012400000015,1.6616059139999997,-7.67628966,-0.0311086534,0.4299564420000001,-1.08722006,1,0,0,0,0,0,0,0,0,0,0,0,0,0,0,0,0,0,5.233289558592827,1.7180003572105178,-7.909394162161197,-0.048352804788830736,0.16094756554906017,-0.5174962851707692
1970-01-03 01:15:21.000,1970-01-03 01:15:21.000,1621.0,walking,0.0,1.0,7.350348859999999,3.8623560279999993,-8.634928,0.15446039259999994,-0.11439368600000002,0.6572569920000003,1,0,0,0,0,0,0,0,0,0,0,0,0,0,0,0,0,0,6.165480085711595,2.8103267292324334,-8.329699057864824,0.049000849602078386,0.050716819882031125,0.05959929353491378
1970-01-03 01:15:21.250,1970-01-03 01:15:21.250,1621.0,walking,0.0,1.0,4.52471212,-0.8757690740000003,-7.0523606,-0.14594080380000002,-0.1840675718,0.8409085600399999,1,0,0,0,0,0,0,0,0,0,0,0,0,0,0,0,0,0,5.443011744291276,0.9326439050394388,-7.5897310618404354,-0.044574341324798775,-0.04327730104946076,0.44341616528307953
1970-01-03 01:15:21.500,1970-01-03 01:15:21.500,1621.0,walking,0.0,1.0,6.498013040000001,1.6534655580000002,-8.961497099999997,0.07947139279999993,-0.07200548000000001,-0.7094772920000001,1,0,0,0,0,0,0,0,0,0,0,0,0,0,0,0,0,0,5.907553362330328,1.2998276182023942,-8.384401465089327,0.014969644313421189,-0.05477840593749422,-0.12294080639794408
1970-01-03 01:15:21.750,1970-01-03 01:15:21.750,1621.0,walking,0.0,1.0,4.27332076,2.90706962,-6.90056812,-0.25928269740000004,0.347495635,-1.131961176,1,0,0,0,0,0,0,0,0,0,0,0,0,0,0,0,0,0,5.187962671145338,2.1185504557942436,-7.524810018167767,-0.1166759784836664,0.10626890512918627,-0.6186203847789872
1970-01-03 01:15:22.000,1970-01-03 01:15:22.000,1621.0,walking,0.0,1.0,7.0218643799999985,3.7732918080000006,-8.514259839999998,0.392233028,-0.15488305800000002,1.06397494,1,0,0,0,0,0,0,0,0,0,0,0,0,0,0,0,0,0,5.9954722950856825,2.961469254342543,-8.098003046512664,0.12760867639868365,0.0017187330923928296,0.20795174666535554
1970-01-03 01:15:22.250,1970-01-03 01:15:22.250,1621.0,walking,0.0,1.0,4.615691740000001,-0.558776712,-7.626489999999999,-0.27163901760000003,-0.11994371228,0.735660402,1,0,0,0,0,0,0,0,0,0,0,0,0,0,0,0,0,0,5.387922766062588,1.1682696800920183,-7.82485346880363,-0.06403675915922055,-0.046987889085494505,0.4671877192831425
1970-01-03 01:15:22.500,1970-01-03 01:15:22.500,1621.0,walking,0.0,1.0,6.729771680000002,1.2838008559999998,-9.7879752,0.15958303640000002,-0.04175863139999999,-0.4761843839999999,1,0,0,0,0,0,0,0,0,0,0,0,0,0,0,0,0,0,5.978770047133,1.2271208024255793,-8.962098849998911,0.04330440465512661,-0.04489439574773523,0.003757758877331707
1970-01-03 01:15:22.750,1970-01-03 01:15:22.750,1621.0,walking,0.0,1.0,3.49185338,2.55607964,-6.37432252,0.08757111799999999,0.3093525232,-1.313482204,1,0,0,0,0,0,0,0,0,0,0,0,0,0,0,0,0,0,4.883722794431348,1.9040872425953186,-7.462988231759543,0.06455315059247535,0.09692562122572701,-0.6433341307186591
1970-01-03 01:15:23.000,1970-01-03 01:15:23.000,1621.0,walking,0.0,1.0,7.625203259999998,2.7480945880000003,-8.91504928,0.35942581,-0.1911073714,0.820668532,1,0,0,0,0,0,0,0,0,0,0,0,0,0,0,0,0,0,6.090860398888031,2.3340212767429693,-8.304173936573813,0.20609685999708405,-0.018386166317661046,0.07585469985808369
1970-01-03 01:15:23.250,1970-01-03 01:15:23.250,1621.0,walking,0.0,1.0,4.480658759999999,-1.0582072400000002,-7.2601776,-0.30444697480000005,-0.10269042140000002,0.8767014139999999,1,0,0,0,0,0,0,0,0,0,0,0,0,0,0,0,0,0,5.381851036981198,0.6060332871917264,-7.6993821340117,-0.03897254144597487,-0.05213672391401195,0.4692692968372198
1970-01-03 01:15:23.500,1970-01-03 01:15:23.500,1621.0,walking,0.0,1.0,6.30360394,0.3773560600000001,-9.684066900000001,0.118464914,-0.023437943799999986,-0.5692885104,1,0,0,0,0,0,0,0,0,0,0,0,0,0,0,0,0,0,5.787720377077129,0.4895459959153718,-8.849118940647836,0.03660001818341582,-0.040647388638221066,-0.040920464200849105
1970-01-03 01:15:23.750,1970-01-03 01:15:23.750,1621.0,walking,0.0,1.0,3.78921318,2.47228262,-6.455725340000001,0.024935174400000003,0.152969041,-0.88055875,1,0,0,0,0,0,0,0,0,0,0,0,0,0,0,0,0,0,4.907731140568299,1.4995443113786164,-7.4626150945927625,0.03100070219974827,0.03686545692542938,-0.45339134476677795
1970-01-03 01:15:24.000,1970-01-03 01:15:24.000,1621.0,walking,0.0,1.0,8.26972236,2.6815358120000004,-9.33882294,-0.09309244799999997,-0.20070514,0.9759840632,1,0,0,0,0,0,0,0,0,0,0,0,0,0,0,0,0,0,6.388093964054785,2.10164612410589,-8.549511022604655,-0.02856604363842581,-0.058244097967884906,0.24878689905712542
1970-01-03 01:15:24.250,1970-01-03 01:15:24.250,1621.0,walking,0.0,1.0,3.3534684399999994,-2.117402072,-7.233841,-0.30209487839999993,-0.14915060000000002,1.392076352,1,0,0,0,0,0,0,0,0,0,0,0,0,0,0,0,0,0,5.051877701293275,-0.04752056983067776,-7.787337381857921,-0.1598643652909359,-0.09463781233284602,0.8104259235919107
1970-01-03 01:15:24.500,1970-01-03 01:15:24.500,1621.0,walking,0.0,1.0,7.804768359999999,-1.6179716738799998,-7.174943740000002,1.94433653,0.7230847140000001,-0.498981042,1,0,0,0,0,0,0,0,0,0,0,0,0,0,0,0,0,0,6.264039624544932,-0.8475022277806956,-7.432575076018822,0.8501865433384599,0.232731078370627,0.1671819681857165
1970-01-03 01:15:24.750,1970-01-03 01:15:24.750,1621.0,walking,0.0,1.0,5.91813772,-1.7434277459999998,-4.9880799200000006,1.9008764600000003,1.87590906,-1.024156412,1,0,0,0,0,0,0,0,0,0,0,0,0,0,0,0,0,0,6.111730889954521,-1.303883195325784,-6.01646801312793,1.3545348913876674,0.890564710889598,-0.41806101966632503
1970-01-03 01:15:25.000,1970-01-03 01:15:25.000,1621.0,walking,0.0,1.0,11.8782629,-4.4584525,-1.4580688260000003,-1.909147494,0.2452009900000001,0.302523924,1,0,0,0,0,0,0,0,0,0,0,0,0,0,0,0,0,0,8.650868990173304,-2.910808595039381,-3.375766715627417,-0.21208613216671002,0.632198327746317,-0.06407488864538113
1970-01-03 01:15:25.250,1970-01-03 01:15:25.250,1621.0,walking,0.0,1.0,6.3897951200000005,-4.424933659999999,-0.8374917319999999,0.3170453179999999,-0.5793190340000001,1.44406124,1,0,0,0,0,0,0,0,0,0,0,0,0,0,0,0,0,0,7.6552656164090696,-3.682097880787299,-1.9053325237244345,0.04190563993666979,0.14717669388762578,0.6767944584966579
1970-01-03 01:15:25.500,1970-01-03 01:15:25.500,1621.0,walking,0.0,1.0,7.958955,-7.7413819,-3.083252915,0.109105724,-0.16301368199999994,0.08734049320000001,1,0,0,0,0,0,0,0,0,0,0,0,0,0,0,0,0,0,7.788987037593856,-5.749881436995832,-2.5877071405634755,0.07416277997150247,0.022994371496823304,0.3872261945082128
1970-01-03 01:15:25.750,1970-01-03 01:15:25.750,1621.0,walking,0.0,1.0,5.3966803400000005,-6.49304512,-0.560722056,2.54088738,-0.919983936,-0.23522156800000002,1,0,0,0,0,0,0,0,0,0,0,0,0,0,0,0,0,0,6.735598721205901,-6.128446224847748,-1.4134654920582301,1.2582309934843567,-0.3545197095921001,0.08144978330026786
1970-01-03 01:15:26.000,1970-01-03 01:15:26.000,1621.0,walking,0.0,1.0,7.387698279999999,-7.63460036,1.077390788,1.131542546,-0.20966562,0.635525582,1,0,0,0,0,0,0,0,0,0,0,0,0,0,0,0,0,0,7.022733288530546,-6.895675164806811,0.02949884193510033,1.1974184712810652,-0.29652849553698674,0.3536385853600685
1970-01-03 01:15:26.250,1970-01-03 01:15:26.250,1621.0,walking,0.0,1.0,2.69745722,-7.0188119,1.1961431560000002,-2.9769692999999995,0.7746387451999999,0.5113157420000001,1,0,0,0,0,0,0,0,0,0,0,0,0,0,0,0,0,0,5.1182136002737675,-6.958400436837498,0.7053411776029853,-0.8063560281963649,0.13230505118847935,0.43109723275410383
1970-01-03 01:15:26.500,1970-01-03 01:15:26.500,1621.0,walking,0.0,1.0,6.5492490000000005,-7.8270941999999994,-4.3679816,0.7446384540000001,0.789339378,-0.727586776,1,0,0,0,0,0,0,0,0,0,0,0,0,0,0,0,0,0,5.748331871826167,-7.400909588686584,-2.233657606055517,-0.06185326908732547,0.3953436661996135,-0.13810431634385256
1970-01-03 01:15:26.750,1970-01-03 01:15:26.750,1621.0,walking,0.0,1.0,6.537756680000001,-6.9364515,-1.98335668,1.08659252,-1.29453811,-0.574188736,1,0,0,0,0,0,0,0,0,0,0,0,0,0,0,0,0,0,6.095933885416013,-7.164316417211729,-2.0886571649430903,0.4894195437027944,-0.28118747004930267,-0.35233003836119803
1970-01-03 01:15:27.000,1970-01-03 01:15:27.000,1621.0,walking,0.0,1.0,8.96882942,-6.7506612000000015,-0.032082315999999965,1.002865432,0.122258804,0.2699268266,1,0,0,0,0,0,0,0,0,0,0,0,0,0,0,0,0,0,7.360936543002722,-6.953602151532819,-0.8972740332557576,0.7358819836737632,-0.11967086832704105,-0.04664740876085477
1970-01-03 01:15:27.250,1970-01-03 01:15:27.250,1621.0,walking,0.0,1.0,3.53351254,-6.68889092,0.8226476936000001,-1.9336403000000002,1.131273576,0.4013804468,1,0,0,0,0,0,0,0,0,0,0,0,0,0,0,0,0,0,5.675632689206223,-6.818759290021574,0.09908441701877546,-0.5455324244072711,0.38113510386856003,0.17344552046638584
1970-01-03 01:15:27.500,1970-01-03 01:15:27.500,1621.0,walking,0.0,1.0,7.02282206,-9.23009624,0.943315446,1.5889793100000005,-0.428705286,-0.4923763778,1,0,0,0,0,0,0,0,0,0,0,0,0,0,0,0,0,0,6.26883145773504,-8.047084733242649,0.5881512788027516,0.47906820758941315,0.05692175969876345,-0.15363836789292856
1970-01-03 01:15:27.750,1970-01-03 01:15:27.750,1621.0,walking,0.0,1.0,5.49388494,-5.92178852,2.2495919200000003,-0.15230372660000002,0.1759419966,0.0826533388,1,0,0,0,0,0,0,0,0,0,0,0,0,0,0,0,0,0,5.927604512237421,-6.964467221387952,1.550631319079597,0.17599933472976587,0.10457059562294793,-0.03756046704580175
1970-01-03 01:15:28.000,1970-01-03 01:15:28.000,1621.0,walking,0.0,1.0,9.9356075,-5.2471025000000004,0.6833051520000001,-2.08725728,1.1304317300000002,-2.39067766,1,0,0,0,0,0,0,0,0,0,0,0,0,0,0,0,0,0,7.69242169987339,-6.0896484531275155,1.0481853348799566,-0.9104009741685719,0.51526619819806,-1.1935253315926888
1970-01-03 01:15:28.250,1970-01-03 01:15:28.250,1621.0,walking,0.0,1.0,7.927351400000001,-4.05479002,0.283952318,-0.8232145240000001,0.8562326499999999,-1.5440054800000005,1,0,0,0,0,0,0,0,0,0,0,0,0,0,0,0,0,0,7.795866748055258,-5.05309950577965,0.6054616887080706,-0.8685500528772788,0.651769482347299,-1.365698129279397
1970-01-03 01:15:28.500,1970-01-03 01:15:28.500,1621.0,walking,0.0,1.0,11.477952400000001,-4.83099028,-0.25522190834,0.7968457299999999,-0.6289696739999999,1.088049934,1,0,0,0,0,0,0,0,0,0,0,0,0,0,0,0,0,0,9.4171745913787,-4.939957950237102,0.10686378279571107,-0.06913278772308451,0.1390354495884042,-0.16029855680855332
1970-01-03 01:15:28.750,1970-01-03 01:15:28.750,1621.0,walking,0.0,1.0,9.09428532,-2.7327118800000005,0.17717093399999997,1.28665436,-0.6999162740000001,1.93578736,1,0,0,0,0,0,0,0,0,0,0,0,0,0,0,0,0,0,9.274998793588125,-3.815595368247763,0.14759303316658753,0.5816672543713954,-0.1968324083655849,0.8694000925681633
1970-01-03 01:15:29.000,1970-01-03 01:15:29.000,1621.0,walking,0.0,1.0,10.008391799999998,-3.701405920000001,1.8382680280000003,-0.7908220074,0.618450713,-1.632209344,1,0,0,0,0,0,0,0,0,0,0,0,0,0,0,0,0,0,9.597928620195493,-3.757427750585256,1.1270087285422106,-0.07715008984428806,0.1295598910149851,-0.35951129992381836
1970-01-03 01:15:29.250,1970-01-03 01:15:29.250,1621.0,walking,0.0,1.0,8.532126860000002,-3.077476988,0.252348866,-1.6536856,0.99555327,-1.22357392,1,0,0,0,0,0,0,0,0,0,0,0,0,0,0,0,0,0,9.128631106455027,-3.4110634798425927,0.6203143081157618,-0.8339129516311002,0.47625364931418024,-0.7839806052412195
1970-01-03 01:15:29.500,1970-01-03 01:15:29.500,1621.0,walking,0.0,1.0,10.45514956,-6.09417106,-1.86843504,-0.9380441840000001,-0.98157194,0.54497812,1,0,0,0,0,0,0,0,0,0,0,0,0,0,0,0,0,0,9.71272809788825,-4.7778280071846275,-0.8214294609383972,-0.8838976524266433,-0.10737556083229682,-0.13113186371732444
1970-01-03 01:15:29.750,1970-01-03 01:15:29.750,1621.0,walking,0.0,1.0,8.61975472,-3.2211291,0.011492165200000027,3.2190415800000003,-1.592177788,1.30898574,1,0,0,0,0,0,0,0,0,0,0,0,0,0,0,0,0,0,9.231466510593476,-3.984851697180207,-0.33891418792793515,1.0855804083589211,-0.7018046548599518,0.5763234638809854
1970-01-03 01:15:30.000,1970-01-03 01:15:30.000,1621.0,walking,0.0,1.0,10.331129800000001,-3.07173088,1.111388462,-1.203720428,0.599066366,-1.0612275960000002,1,0,0,0,0,0,0,0,0,0,0,0,0,0,0,0,0,0,9.715673953316411,-3.519711501023478,0.5012527007658071,-0.013321513883591374,-0.18101097940774824,-0.22812071284208135
1970-01-03 01:15:30.250,1970-01-03 01:15:30.250,1621.0,walking,0.0,1.0,8.7193534,-3.65591596,0.2322375740000001,-1.14065268,0.8969071080000001,-1.47838521,1,0,0,0,0,0,0,0,0,0,0,0,0,0,0,0,0,0,9.276970944484235,-3.5890935289900203,0.3454110205112527,-0.5544589336094284,0.2505251991864687,-0.8423110369529916
1970-01-03 01:15:30.500,1970-01-03 01:15:30.500,1621.0,walking,0.0,1.0,10.5997595,-5.1451096,-0.695276172,-0.030221187999999975,-0.24186028800000006,0.051973708000000014,1,0,0,0,0,0,0,0,0,0,0,0,0,0,0,0,0,0,9.859425359808283,-4.381722072392604,-0.2574638036922481,-0.302816226329034,0.05340247138382076,-0.4029951653383529
1970-01-03 01:15:30.750,1970-01-03 01:15:30.750,1621.0,walking,0.0,1.0,8.772504719999999,-3.03486014,0.32800562199999994,2.08028002,-1.16288686,1.92449556,1,0,0,0,0,0,0,0,0,0,0,0,0,0,0,0,0,0,9.380828940694329,-3.6956358554850417,0.08170128239826252,0.8411090406357657,-0.4335295725277259,0.7403807340075667
1970-01-03 01:15:31.000,1970-01-03 01:15:31.000,1621.0,walking,0.0,1.0,10.4910626,-2.405663948,0.7881712139999999,-0.935909608,0.513839346,-0.476184344,1,0,0,0,0,0,0,0,0,0,0,0,0,0,0,0,0,0,9.869690471184272,-3.0385292080620245,0.4909625261306179,-0.011889037055148766,-0.05425773194862238,0.14274519548107722
1970-01-03 01:15:31.250,1970-01-03 01:15:31.250,1621.0,walking,0.0,1.0,8.738985679999999,-3.44570524,0.8475473967999999,-0.8310929300000002,0.58735192,-1.6109040540000001,1,0,0,0,0,0,0,0,0,0,0,0,0,0,0,0,0,0,9.37181498063895,-3.2459430573283496,0.6975337666885008,-0.40512033963601607,0.20260573861391828,-0.7187320599990884
1970-01-03 01:15:31.500,1970-01-03 01:15:31.500,1621.0,walking,0.0,1.0,10.4656844,-5.3486167,-0.6526593820000001,-0.16295908200000006,-0.13553652,-0.03601711199999995,1,0,0,0,0,0,0,0,0,0,0,0,0,0,0,0,0,0,9.85347094339043,-4.317036756927312,-0.0846392293790037,-0.28887896909424055,0.06723309498501626,-0.3833494942611045
1970-01-03 01:15:31.750,1970-01-03 01:15:31.750,1621.0,walking,0.0,1.0,9.1953204,-3.47299906,-0.0751779132,1.4006415520000002,-1.31458078,2.2792285800000003,1,0,0,0,0,0,0,0,0,0,0,0,0,0,0,0,0,0,9.563671820665213,-3.8870872652110466,-0.0791582473042658,0.5221185678151923,-0.48596543026845795,0.9246375436528675
1970-01-03 01:15:32.000,1970-01-03 01:15:32.000,1621.0,walking,0.0,1.0,9.88916072,-2.24190056,0.974440086,-0.76120466,0.567099914,-0.3837194139999999,1,0,0,0,0,0,0,0,0,0,0,0,0,0,0,0,0,0,9.706992330915817,-3.049035516788048,0.5311960494539195,-0.09389760866982477,-0.06437884284328182,0.2819093961556065
1970-01-03 01:15:32.250,1970-01-03 01:15:32.250,1621.0,walking,0.0,1.0,9.92555214,-4.81470976,0.02777273800000001,-1.0366830120000001,1.118482356,-2.168250334000001,1,0,0,0,0,0,0,0,0,0,0,0,0,0,0,0,0,0,9.803229402587549,-3.9484630387301487,0.2395606431697357,-0.5464500263999159,0.40917050517867165,-0.9217274302947269
1970-01-03 01:15:32.500,1970-01-03 01:15:32.500,1621.0,walking,0.0,1.0,9.487413400000001,-4.8511014999999995,-0.88681231,-0.017864746000000008,-0.13980690039999993,-0.06286178200000006,1,0,0,0,0,0,0,0,0,0,0,0,0,0,0,0,0,0,9.664168268422626,-4.4082634977620865,-0.4129523250626598,-0.29272043054729635,0.1893916402487357,-0.49981113173951824
1970-01-03 01:15:32.750,1970-01-03 01:15:32.750,1621.0,walking,0.0,1.0,10.0706405,-3.57403436,-0.6813898039999999,1.5374188480000002,-1.7080848999999998,2.30202524,1,0,0,0,0,0,0,0,0,0,0,0,0,0,0,0,0,0,9.8431474813253,-3.9833104766108245,-0.5684593760003871,0.5857764071334306,-0.5702484615159075,0.8765862954619936
1970-01-03 01:15:33.000,1970-01-03 01:15:33.000,1621.0,walking,0.0,1.0,10.742933000000004,-1.4249989092,0.8844180999999999,-0.5784130079999998,0.322102406,-0.09695022600000014,1,0,0,0,0,0,0,0,0,0,0,0,0,0,0,0,0,0,10.239344109232196,-2.6801165296231866,0.2731991138174419,0.026946411916707103,-0.2130026835071555,0.3983381226117231
1970-01-03 01:15:33.250,1970-01-03 01:15:33.250,1621.0,walking,0.0,1.0,10.4436576,-4.754854539999998,-0.886812342,-1.73869782,1.55141539,-2.65401094,1,0,0,0,0,0,0,0,0,0,0,0,0,0,0,0,0,0,10.329308215997324,-3.736980048896922,-0.39880077292752747,-0.820591724045817,0.49336849324586646,-1.101123237727912
1970-01-03 01:15:33.500,1970-01-03 01:15:33.500,1621.0,walking,0.0,1.0,9.5611547,-5.6344843199999985,-2.30657394,-0.16572346400000004,-0.018579773999999948,-0.05433967400000004,1,0,0,0,0,0,0,0,0,0,0,0,0,0,0,0,0,0,9.991072195853091,-4.703561307223527,-1.5039823737668523,-0.5062442263397727,0.28841395657845303,-0.5868925784480362
1970-01-03 01:15:33.750,1970-01-03 01:15:33.750,1621.0,walking,0.0,1.0,11.573721100000002,-3.5347694400000003,-1.431253782,2.94697918,-2.2503088,2.93734898,1,0,0,0,0,0,0,0,0,0,0,0,0,0,0,0,0,0,10.68794927260527,-4.108183338235539,-1.4618503760439734,1.1513596395912868,-0.7279440822460587,1.1443851887298315
1970-01-03 01:15:34.000,1970-01-03 01:15:34.000,1621.0,walking,0.0,1.0,9.336578800000002,-2.0029592000000003,0.743639068,-0.477426494,0.32785617,0.5581873620000001,1,0,0,0,0,0,0,0,0,0,0,0,0,0,0,0,0,0,10.09290920888079,-3.0357904014103982,-0.18420035404766355,0.36951560545666096,-0.3052625962462247,0.8564164974403136
1970-01-03 01:15:34.250,1970-01-03 01:15:34.250,1621.0,walking,0.0,1.0,11.508119599999999,-4.77113524,-0.5482722040000001,-1.920007606,1.7708633999999999,-3.233940968,1,0,0,0,0,0,0,0,0,0,0,0,0,0,0,0,0,0,10.716059277539019,-3.9197683381203023,-0.3951088202059537,-0.7294930403530634,0.5258984252998276,-1.1529647580776006
1970-01-03 01:15:34.500,1970-01-03 01:15:34.500,1621.0,walking,0.0,1.0,9.3815898,-4.79555618,-2.39515936,-1.3012954099999998,0.5901125480000001,-0.55820975,1,0,0,0,0,0,0,0,0,0,0,0,0,0,0,0,0,0,10.128461344472976,-4.365891191267681,-1.553747096249046,-1.003967541765644,0.5516060612098855,-0.8607923773622868
1970-01-03 01:15:34.750,1970-01-03 01:15:34.750,1621.0,walking,0.0,1.0,10.5039914,-3.922630100000001,-0.7177816599999999,3.154281174,-2.34128506,1.9492096600000004,1,0,0,0,0,0,0,0,0,0,0,0,0,0,0,0,0,0,10.293815848673749,-4.140095706202101,-1.0694685317206218,0.9920599578008069,-0.6065405396976843,0.5196163956894482
1970-01-03 01:15:35.000,1970-01-03 01:15:35.000,1621.0,walking,0.0,1.0,10.558579199999999,-0.20778677199999995,0.38259343,-0.23411322,0.31804348600000004,0.17128333599999998,1,0,0,0,0,0,0,0,0,0,0,0,0,0,0,0,0,0,10.410397422805397,-2.1369928743487154,-0.22828245980639217,0.4034767434209633,-0.23639045662397112,0.34849836727677136
1970-01-03 01:15:35.250,1970-01-03 01:15:35.250,1621.0,walking,0.0,1.0,10.0275451,-3.52279842,1.1468226079999997,-0.277789776,0.4897657096,-2.7364624340000003,1,0,0,0,0,0,0,0,0,0,0,0,0,0,0,0,0,0,10.241818578767786,-2.8429168731433228,0.5683221176399257,0.0764576537264744,0.05432055661654833,-1.1669833807265457
1970-01-03 01:15:35.500,1970-01-03 01:15:35.500,1621.0,walking,0.0,1.0,9.7091164,-5.0560453,-0.344286188,-1.9570746,0.15122785200000002,-0.244382842,1,0,0,0,0,0,0,0,0,0,0,0,0,0,0,0,0,0,10.007257226084295,-3.9702759781105943,0.03964399813822961,-0.8996711675965416,0.09311664214579395,-0.7137574238734556
1970-01-03 01:15:35.750,1970-01-03 01:15:35.750,1621.0,walking,0.0,1.0,10.5916191,-3.8488887799999993,-0.927992588,2.4060325980800004,-1.75196878,2.35102738,1,0,0,0,0,0,0,0,0,0,0,0,0,0,0,0,0,0,10.264565533378441,-3.908441860865667,-0.5209122587343924,0.6871207864615669,-0.6455490480931206,0.791812991836049
1970-01-03 01:15:36.000,1970-01-03 01:15:36.000,1621.0,walking,0.0,1.0,10.188914599999999,-0.9978733559999999,0.5640739204,0.40098918600000016,-0.06415895840000005,0.9768362,1,0,0,0,0,0,0,0,0,0,0,0,0,0,0,0,0,0,10.231254534004924,-2.4258096243768676,0.10762515245074211,0.5497729246377377,-0.41279401481611805,0.8827053327980993
1970-01-03 01:15:36.250,1970-01-03 01:15:36.250,1621.0,walking,0.0,1.0,10.610772599999999,-3.5769074,1.298615027,-1.689496638,0.7946766129999999,-3.19921364,1,0,0,0,0,0,0,0,0,0,0,0,0,0,0,0,0,0,10.398364966556315,-3.012174338681942,0.7975709570102478,-0.5251131549341262,0.07060752555476957,-1.1225305240243637
1970-01-03 01:15:36.500,1970-01-03 01:15:36.500,1621.0,walking,0.0,1.0,9.876231599999999,-5.23608902,-0.9979033079999999,-1.5987360799999997,0.5488135780000001,-0.5820719334000001,1,0,0,0,0,0,0,0,0,0,0,0,0,0,0,0,0,0,10.168457312950405,-4.145027908057793,-0.24255541076927023,-1.0404697347207112,0.2620536285446088,-0.857031166593764
1970-01-03 01:15:36.750,1970-01-03 01:15:36.750,1621.0,walking,0.0,1.0,10.297132099999999,-3.77706272,-0.8978256313999999,2.513829926,-1.62391066,2.02995672,1,0,0,0,0,0,0,0,0,0,0,0,0,0,0,0,0,0,10.225115989398196,-3.9575878434177314,-0.6221564351883967,0.6656523492304178,-0.49297761794728323,0.5611968081353773
1970-01-03 01:15:37.000,1970-01-03 01:15:37.000,1621.0,walking,0.0,1.0,9.527157,-2.1188386,0.24133553,0.2586651440000001,-0.14021037079999996,1.666062392,1,0,0,0,0,0,0,0,0,0,0,0,0,0,0,0,0,0,9.917788325527832,-3.0209361260902585,-0.12193162823192427,0.4702918224752579,-0.35174997548339154,1.103960143314151
1970-01-03 01:15:37.250,1970-01-03 01:15:37.250,1621.0,walking,0.0,1.0,10.65769886,-3.150260728,1.75878056,-0.40479587479999996,0.36496274,-3.08160834,1,0,0,0,0,0,0,0,0,0,0,0,0,0,0,0,0,0,10.24358805553558,-3.0868135528261615,0.9675734891228085,0.05023538459373805,-0.06481957774964237,-0.9521932880233175
1970-01-03 01:15:37.500,1970-01-03 01:15:37.500,1621.0,walking,0.0,1.0,8.76292772,-4.538897520000001,-0.5109226400000001,-1.5802121519999996,1.003275328,-1.085089804,1,0,0,0,0,0,0,0,0,0,0,0,0,0,0,0,0,0,9.591618972757326,-3.8264994578794007,0.11107399717774813,-0.7324061305776632,0.36278395152102305,-1.017478476582535
1970-01-03 01:15:37.750,1970-01-03 01:15:37.750,1621.0,walking,0.0,1.0,12.170834900000001,-5.73360418,-1.7372328000000001,0.95256245,-1.7642847920000002,2.27347589,1,0,0,0,0,0,0,0,0,0,0,0,0,0,0,0,0,0,10.727307622218715,-4.797971048271037,-0.9596585103673756,0.07640639684835204,-0.48877162300308086,0.5991972994227959
1970-01-03 01:15:38.000,1970-01-03 01:15:38.000,1621.0,walking,0.0,1.0,9.360520300000001,-9.654827800000001,-2.89123792,0.4576418532,-2.32951626,5.2029528,1,0,0,0,0,0,0,0,0,0,0,0,0,0,0,0,0,0,10.125479378155546,-7.272035068135013,-2.0786312486297285,0.2594056560686571,-1.2256994937962546,2.8607844494367383
1970-01-03 01:15:38.250,1970-01-03 01:15:38.250,1621.0,walking,0.0,1.0,-5.603718906,-5.724985160000001,-0.5094860800000001,-0.11397999,-2.63652394,4.1739076,1,0,0,0,0,0,0,0,0,0,0,0,0,0,0,0,0,0,3.1995473212668353,-6.4839738613502504,-1.1696183398383755,0.08017442911347009,-1.7905121788411145,3.5058540579553235
1970-01-03 01:15:38.500,1970-01-03 01:15:38.500,1621.0,walking,0.0,1.0,-4.6177866,2.77874034,4.19895086,1.328599652,-1.5891534859999998,1.74617002,1,0,0,0,0,0,0,0,0,0,0,0,0,0,0,0,0,0,-0.24260667818488502,-1.7655833497140234,1.9404180770904187,0.6794390103690036,-1.7098997974432288,2.64141225598284
1970-01-03 01:15:38.750,1970-01-03 01:15:38.750,1621.0,walking,0.0,1.0,-8.52129314,5.1533097,5.6191913,-0.8556177604,0.116759634,0.5272944340000001,1,0,0,0,0,0,0,0,0,0,0,0,0,0,0,0,0,0,-3.887904824897051,1.7588738396623045,4.071548003699482,-0.057413391981805395,-0.9786107942931379,1.602855455318474
1970-01-03 01:15:39.000,1970-01-03 01:15:39.000,1621.0,walking,0.0,1.0,-6.7175016,0.07712316000000001,4.99957198,-2.8811082999999997,0.2158239048,0.41288504600000003,1,0,0,0,0,0,0,0,0,0,0,0,0,0,0,0,0,0,-5.133842165302282,0.9021966031915618,4.609156395298294,-1.4128332061960953,-0.5004280833554515,1.0182844971900336
1970-01-03 01:15:39.250,1970-01-03 01:15:39.250,1621.0,walking,0.0,1.0,-6.825240719999999,-3.4035671800000005,6.437050520000001,0.184083548,-0.566293234,-0.440817866,1,0,0,0,0,0,0,0,0,0,0,0,0,0,0,0,0,0,-5.878604270912244,-1.2911426169871933,5.668063643875628,-0.6462869972895416,-0.526796690211646,0.3015029254726288
1970-01-03 01:15:39.500,1970-01-03 01:15:39.500,1621.0,walking,0.0,1.0,-2.2954109879999995,1.2244246740000002,7.298963260000002,1.6081335920000002,-1.2866330259999998,0.383909846,1,0,0,0,0,0,0,0,0,0,0,0,0,0,0,0,0,0,-4.300840813630757,-0.00972242948128943,6.6128510734318136,0.4358718060757397,-0.830991297182887,0.34198518870909217
1970-01-03 01:15:39.750,1970-01-03 01:15:39.750,1621.0,walking,0.0,1.0,-3.3014544800000003,6.683683280000001,9.68885528,0.6854014800000001,0.829195146,0.13037693880000004,1,0,0,0,0,0,0,0,0,0,0,0,0,0,0,0,0,0,-3.860787777116701,3.3998723850518155,8.394794189258613,0.555650147336567,-0.1663484720888252,0.23803299121926905
1970-01-03 01:15:40.000,1970-01-03 01:15:40.000,1621.0,walking,0.0,1.0,-6.272659,1.30199678,5.62493746,-0.7652749400000001,0.47275662,-0.6381048380000001,1,0,0,0,0,0,0,0,0,0,0,0,0,0,0,0,0,0,-4.9227907389246175,2.3312227601826647,6.790203674685378,-0.07841553877419494,0.08951231967027246,-0.1923682475309332
1970-01-03 01:15:40.250,1970-01-03 01:15:40.250,1621.0,walking,0.0,1.0,-6.69691132,0.6435913560000001,8.507077599999999,0.83390017,-0.5718419374,0.22710292,1,0,0,0,0,0,0,0,0,0,0,0,0,0,0,0,0,0,-5.703977332355029,1.471549900834078,7.784796299536142,0.35951094181321286,-0.17525575896741313,0.013696255758296416
1970-01-03 01:15:40.500,1970-01-03 01:15:40.500,1621.0,walking,0.0,1.0,-1.5493776999999995,5.53446656,5.747999299999999,2.3184499999999995,-1.280237946,0.7103068779999999,1,0,0,0,0,0,0,0,0,0,0,0,0,0,0,0,0,0,-3.8746104015937064,3.5411838900152515,6.604870502943534,1.2998337743734263,-0.6176268345169953,0.35590505061529304
1970-01-03 01:15:40.750,1970-01-03 01:15:40.750,1621.0,walking,0.0,1.0,-0.392020554,8.5229091,8.22647704,-1.5427092400000002,1.19522669,-0.333013098,1,0,0,0,0,0,0,0,0,0,0,0,0,0,0,0,0,0,-2.341145029568911,6.078855309842253,7.544274305049944,-0.06463344325885778,0.10813507148316903,0.017475177983576895
1970-01-03 01:15:41.000,1970-01-03 01:15:41.000,1621.0,walking,0.0,1.0,-5.3547218,2.4904785140000003,6.2507817999999995,-0.36154164520000004,0.5956915848,-0.29615496,1,0,0,0,0,0,0,0,0,0,0,0,0,0,0,0,0,0,-3.6680931247355004,4.250950170025465,6.794948357476934,-0.20715425146251312,0.30332454866620817,-0.13659509113715443
1970-01-03 01:15:41.250,1970-01-03 01:15:41.250,1621.0,walking,0.0,1.0,-6.1524699,4.06825748,8.625829699999999,0.10376953599999998,-0.460204888,-0.0575357272,1,0,0,0,0,0,0,0,0,0,0,0,0,0,0,0,0,0,-4.762022139291266,4.157887150988501,7.855586215732035,-0.05790574029425355,-0.0023485717933128814,-0.09775731172958804
1970-01-03 01:15:41.500,1970-01-03 01:15:41.500,1621.0,walking,0.0,1.0,-3.084061,3.28918416,7.581958019999999,0.3163979685,-0.756564366,-0.5637493920000001,1,0,0,0,0,0,0,0,0,0,0,0,0,0,0,0,0,0,-4.023176752126695,3.715373202519709,7.697072044170912,0.12176617116563487,-0.3042930479619171,-0.3266751253296446
1970-01-03 01:15:41.750,1970-01-03 01:15:41.750,1621.0,walking,0.0,1.0,-2.86427332,6.6252650200000005,7.602548059999998,1.1758599200000002,-0.15747139400000001,0.498745362,1,0,0,0,0,0,0,0,0,0,0,0,0,0,0,0,0,0,-3.5128845914330085,5.1976607938099875,7.642313907862857,0.6277484457629932,-0.24551413001226408,0.07881129106825235
1970-01-03 01:15:42.000,1970-01-03 01:15:42.000,1621.0,walking,0.0,1.0,-1.7097892739999998,4.2162191600000005,6.44136036,-1.98115776,0.621023844,0.565217862,1,0,0,0,0,0,0,0,0,0,0,0,0,0,0,0,0,0,-2.7189397546952825,4.69771814659062,6.946596140092333,-0.6245692892057961,0.1013976545719078,0.3177576934834536
1970-01-03 01:15:42.250,1970-01-03 01:15:42.250,1621.0,walking,0.0,1.0,-4.02067264,3.78574166,10.620199900000001,-0.30507204999999993,-0.459790756,-0.7491054079999999,1,0,0,0,0,0,0,0,0,0,0,0,0,0,0,0,0,0,-3.2921231132741076,4.2331608351080225,9.074731597791875,-0.47120537434205073,-0.12326979762592497,-0.20633699758692858
1970-01-03 01:15:42.500,1970-01-03 01:15:42.500,1621.0,walking,0.0,1.0,-0.939335108,-0.4323629080000001,7.3363127000000015,-1.1841282279999998,0.299742772,-2.69981762,1,0,0,0,0,0,0,0,0,0,0,0,0,0,0,0,0,0,-2.2561357902407444,1.8565612386466923,8.067657691957905,-0.8134200523889525,0.046080013698392486,-1.4312551633782582
1970-01-03 01:15:42.750,1970-01-03 01:15:42.750,1621.0,walking,0.0,1.0,-3.8904282,-2.61970552,9.75876586,0.2697452891,1.04670515,-0.49514635,1,0,0,0,0,0,0,0,0,0,0,0,0,0,0,0,0,0,-2.9757528246452454,-0.42363154371134026,9.047324500736844,-0.29348294031827715,0.446672553423903,-0.9713932955900783
1970-01-03 01:15:43.000,1970-01-03 01:15:43.000,1621.0,walking,0.0,1.0,-2.4816798140000005,-2.126500054,3.6482845800000008,-0.2550038040000001,1.82349566,-2.0148525200000003,1,0,0,0,0,0,0,0,0,0,0,0,0,0,0,0,0,0,-2.7582010229423535,-1.2910661580965508,5.919636257782768,-0.2750123272534602,0.9978730423734187,-1.4839908803497917
1970-01-03 01:15:43.250,1970-01-03 01:15:43.250,1621.0,walking,0.0,1.0,11.312992400000002,-8.462994179999999,-3.11772942,-4.442770789999999,5.15670648,-5.40580246,1,0,0,0,0,0,0,0,0,0,0,0,0,0,0,0,0,0,3.4376728327674604,-4.944418514431357,0.6842493556403504,-2.2756047584256516,2.6628298463756046,-3.4105740966011213
1970-01-03 01:15:43.500,1970-01-03 01:15:43.500,1621.0,walking,0.0,1.0,12.05579306,-2.2668001600000003,-4.24432104,1.0205449940000002,0.7840080039999999,-3.207096512000001,1,0,0,0,0,0,0,0,0,0,0,0,0,0,0,0,0,0,7.23243165613496,-3.5804501733813376,-2.1708937144950355,-0.6933988644102513,1.9106580341351282,-3.310616108364673
1970-01-03 01:15:43.750,1970-01-03 01:15:43.750,1621.0,walking,0.0,1.0,8.84097882,-7.923341339999999,-3.6473269,-1.1538743800000002,-0.80067614,-0.3430265979999999,1,0,0,0,0,0,0,0,0,0,0,0,0,0,0,0,0,0,7.940712326436474,-5.792701957462731,-3.0261981775887907,-0.9144346650467233,0.8251963167532628,-1.8527927749775108
1970-01-03 01:15:44.000,1970-01-03 01:15:44.000,1621.0,walking,0.0,1.0,16.105705200000006,-2.790651552,-3.3087868400000007,4.73959169,-1.6722707739999998,4.41508336,1,0,0,0,0,0,0,0,0,0,0,0,0,0,0,0,0,0,11.535948766538544,-4.263469196659687,-3.189903087384886,1.7995905822935168,-0.17464535425901184,1.2262908214653663
1970-01-03 01:15:44.250,1970-01-03 01:15:44.250,1621.0,walking,0.0,1.0,8.6494424,-0.6028300406000001,1.664927892,-1.095499244,1.146842654,-0.486624308,1,0,0,0,0,0,0,0,0,0,0,0,0,0,0,0,0,0,10.264952946221792,-2.3987538976324965,-0.3774775264962944,0.4099000139286493,0.35440214661540026,0.38482415878541054
1970-01-03 01:15:44.500,1970-01-03 01:15:44.500,1621.0,walking,0.0,1.0,14.7249688,-3.7804144872,-0.14987702,-0.6374299832,0.7226447600000002,-4.48818371,1,0,0,0,0,0,0,0,0,0,0,0,0,0,0,0,0,0,12.228801787886237,-3.102566459687416,-0.24562752535186033,-0.09283555905630037,0.5018252287650175,-2.0090326283707136
1970-01-03 01:15:44.750,1970-01-03 01:15:44.750,1621.0,walking,0.0,1.0,9.8293054,-6.47293382,-4.4852974,-4.466416302,0.85495062,-0.5119775320000001,1,0,0,0,0,0,0,0,0,0,0,0,0,0,0,0,0,0,11.172247786430585,-4.819418418518582,-2.70168738595195,-2.1922260038257266,0.6431962479318309,-1.2736068494329005
1970-01-03 01:15:45.000,1970-01-03 01:15:45.000,1621.0,walking,0.0,1.0,13.123248199999999,-4.02031356,-3.66648052,5.51042324,-3.33835488,2.003963988,1,0,0,0,0,0,0,0,0,0,0,0,0,0,0,0,0,0,12.031318636708265,-4.41235761267511,-3.2605964337287583,1.505171813441177,-0.9507869890655036,0.33649427273409516
1970-01-03 01:15:45.250,1970-01-03 01:15:45.250,1621.0,walking,0.0,1.0,9.32700168,-0.051684814000000176,1.2971784979999998,-0.487441594,0.811063048,0.8896974459999999,1,0,0,0,0,0,0,0,0,0,0,0,0,0,0,0,0,0,10.840544886441242,-2.1910479018396174,-0.6202567525373199,0.5486847264581243,-0.2454439259738752,0.6082543913082896
1970-01-03 01:15:45.500,1970-01-03 01:15:45.500,1621.0,walking,0.0,1.0,13.0198184,-3.868042360000001,-0.547314504,-1.43510014,1.30747519,-4.20034928,1,0,0,0,0,0,0,0,0,0,0,0,0,0,0,0,0,0,11.800129698504595,-3.045302391987448,-0.5780009893119031,-0.4035645413619253,0.37625526210390614,-1.753964071497778
1970-01-03 01:15:45.750,1970-01-03 01:15:45.750,1621.0,walking,0.0,1.0,10.38954834,-6.28714386,-2.57233032,-1.27083624,0.2620244400000001,-0.3413222,1,0,0,0,0,0,0,0,0,0,0,0,0,0,0,0,0,0,11.179017876359277,-4.696683710759425,-1.7333249614669555,-0.8198691640599235,0.3305238312410383,-1.0600061429017078
1970-01-03 01:15:46.000,1970-01-03 01:15:46.000,1621.0,walking,0.0,1.0,13.801764600000002,-3.75312062,-2.70927866,3.37264648,-2.28160524,3.83131856,1,0,0,0,0,0,0,0,0,0,0,0,0,0,0,0,0,0,12.333874257426627,-4.216036374176863,-2.298699318235596,1.1926070824704138,-0.715221879668066,1.3428488899923328
1970-01-03 01:15:46.250,1970-01-03 01:15:46.250,1621.0,walking,0.0,1.0,9.21016468,-0.6942885619999999,0.8671798585999999,0.403112032,0.34214695199999995,1.0744142440000002,1,0,0,0,0,0,0,0,0,0,0,0,0,0,0,0,0,0,10.958432373435853,-2.422071772683018,-0.4646911547935493,0.813636518615255,-0.291912425874357,1.2109808277362784
1970-01-03 01:15:46.500,1970-01-03 01:15:46.500,1621.0,walking,0.0,1.0,13.00377782,-4.10554716,-0.6593631200000001,-1.892962614,1.5665682980000002,-5.07450528,1,0,0,0,0,0,0,0,0,0,0,0,0,0,0,0,0,0,11.859045442497555,-3.279627461008705,-0.5774654897837856,-0.4855753937408607,0.45211596840869755,-1.8767536384844687
1970-01-03 01:15:46.750,1970-01-03 01:15:46.750,1621.0,walking,0.0,1.0,9.79818066,-5.6392726600000005,-3.17902096,-2.74816256,0.562246568,-0.5447876979999999,1,0,0,0,0,0,0,0,0,0,0,0,0,0,0,0,0,0,10.951598674270342,-4.481621534997239,-2.0845583198425115,-1.571654280925194,0.4962059010236504,-1.2224276216609702
1970-01-03 01:15:47.000,1970-01-03 01:15:47.000,1621.0,walking,0.0,1.0,14.5032659,-4.318152199999999,-2.8385654280000003,4.46665932,-3.01895776,2.83188734,1,0,0,0,0,0,0,0,0,0,0,0,0,0,0,0,0,0,12.515480614804197,-4.398351009460415,-2.5213580097053994,1.3268352933081806,-0.9110627728462453,0.769247713996402
1970-01-03 01:15:47.250,1970-01-03 01:15:47.250,1621.0,walking,0.0,1.0,9.50991874,-0.71296334,1.265575008,0.4425129639999999,0.6828424959999999,2.450522486,1,0,0,0,0,0,0,0,0,0,0,0,0,0,0,0,0,0,11.192061950762406,-2.5210289096168745,-0.32757052318762714,0.9023460833955406,-0.2729551037362963,1.5951710771170307
1970-01-03 01:15:47.500,1970-01-03 01:15:47.500,1621.0,walking,0.0,1.0,11.74981422,-3.66070454,0.6943184920000001,-1.357357806,0.6702723868,-5.2334429,1,0,0,0,0,0,0,0,0,0,0,0,0,0,0,0,0,0,11.437653175206187,-3.1015752666230507,0.2644144042118467,-0.18234883434201254,0.10465875014341863,-1.7593739568345885
1970-01-03 01:15:47.750,1970-01-03 01:15:47.750,1621.0,walking,0.0,1.0,10.068246659999998,-5.6622572400000015,-2.1341914,-3.3117012760000004,0.799398348,-1.288555572,1,0,0,0,0,0,0,0,0,0,0,0,0,0,0,0,0,0,10.834671691717547,-4.405976650831105,-1.1251088753451746,-1.6844892910081983,0.38279239098753676,-1.528085244521141
1970-01-03 01:15:48.000,1970-01-03 01:15:48.000,1621.0,walking,0.0,1.0,13.778780400000002,-4.30091392,-3.7038299999999986,3.3351225799999997,-3.31507892,1.89743728,1,0,0,0,0,0,0,0,0,0,0,0,0,0,0,0,0,0,12.131031100577674,-4.352458049960071,-2.618973713076067,0.7250066556145403,-1.097621864307868,0.15469694077513396
1970-01-03 01:15:48.250,1970-01-03 01:15:48.250,1621.0,walking,0.0,1.0,11.27540306,1.19952504,0.397437466,1.0194599319999995,0.04389689600000004,2.5395789200000003,1,0,0,0,0,0,0,0,0,0,0,0,0,0,0,0,0,0,11.754278142052275,-1.5242995446682892,-0.871553052529161,0.8663490676823379,-0.6406236409713084,1.3262661853484536
1970-01-03 01:15:48.500,1970-01-03 01:15:48.500,1621.0,walking,0.0,1.0,13.5038062,-3.19622928,-0.33087866800000004,-0.33342350460000003,0.5200660880000001,-4.917272199999998,1,0,0,0,0,0,0,0,0,0,0,0,0,0,0,0,0,0,12.524636030744128,-2.3759739983784756,-0.5583379350107922,0.29043857926315597,-0.17595047009122827,-1.7408614553212065
1970-01-03 01:15:48.750,1970-01-03 01:15:48.750,1621.0,walking,0.0,1.0,9.0406554,-3.82494679,-2.01112944,-3.55585428,0.6773094772,-0.6992511727999999,1,0,0,0,0,0,0,0,0,0,0,0,0,0,0,0,0,0,10.9905581486143,-3.1140751316434994,-1.3999466034483365,-1.5558450338811376,0.16564555360410632,-1.2291721630571022
1970-01-03 01:15:49.000,1970-01-03 01:15:49.000,1621.0,walking,0.0,1.0,13.604961400000002,-5.08190258,-3.66264972,2.2176619200000003,-2.8105723599999988,1.93152568,1,0,0,0,0,0,0,0,0,0,0,0,0,0,0,0,0,0,12.141740751776238,-4.116478718117322,-2.710740723299562,0.25550010268388323,-1.0258603236239034,0.32351533125509313
1970-01-03 01:15:49.250,1970-01-03 01:15:49.250,1621.0,walking,0.0,1.0,10.7707054,-0.6526294439999999,-0.392649084,2.1482098480000005,-0.554134578,2.8695976,1,0,0,0,0,0,0,0,0,0,0,0,0,0,0,0,0,0,11.5380418958439,-2.35200740667359,-1.3678597300946487,1.1640317742377428,-0.8370085745694024,1.5742739846865454
1970-01-03 01:15:49.500,1970-01-03 01:15:49.500,1621.0,walking,0.0,1.0,12.268398399999999,-3.07364616,0.25426419599999994,-1.46537562,1.011796112,-4.0433294040000005,1,0,0,0,0,0,0,0,0,0,0,0,0,0,0,0,0,0,11.859634813952853,-2.7196073257518134,-0.42815598181594605,-0.09812687774491535,-0.09685388814957041,-1.1853641177760355
1970-01-03 01:15:49.750,1970-01-03 01:15:49.750,1621.0,walking,0.0,1.0,9.958592199999998,-3.37292152,-2.07050561,-2.432421214,1.4163811919999998,-1.588960044,1,0,0,0,0,0,0,0,0,0,0,0,0,0,0,0,0,0,11.022561596376987,-3.052403000473463,-1.3795765706143053,-1.2186264032453251,0.5089581139972122,-1.3836299390661129
1970-01-03 01:15:50.000,1970-01-03 01:15:50.000,1621.0,walking,0.0,1.0,11.2739666,-5.77430576,-4.9579129,0.7045749399999999,-1.86634726,0.90397192,1,0,0,0,0,0,0,0,0,0,0,0,0,0,0,0,0,0,11.133261154582415,-4.438929678151914,-3.4525230377256797,-0.29545824572275603,-0.44197707758697025,-0.2598493913824471
1970-01-03 01:15:50.250,1970-01-03 01:15:50.250,1621.0,walking,0.0,1.0,12.753104400000002,-0.523821384,-1.3144167640000002,3.0824582700000005,-0.916557484,3.4961863600000003,1,0,0,0,0,0,0,0,0,0,0,0,0,0,0,0,0,0,11.846515755808918,-2.4445888019657467,-2.2139083836455584,1.325997022838548,-0.6319716825206034,1.5852967813388696
1970-01-03 01:15:50.500,1970-01-03 01:15:50.500,1621.0,walking,0.0,1.0,11.054538259999998,-1.6371251399999998,0.823126548,-0.768262054,0.4776645919999999,-3.06072948,1,0,0,0,0,0,0,0,0,0,0,0,0,0,0,0,0,0,11.497789835635835,-2.0332699598606325,-0.4545402786242383,0.32071836381188645,-0.18773736666165686,-0.6970557898134526
1970-01-03 01:15:50.750,1970-01-03 01:15:50.750,1621.0,walking,0.0,1.0,11.421928,-3.1641470000000003,-1.158314766,-2.23896622,1.0081662532,-2.320370688,1,0,0,0,0,0,0,0,0,0,0,0,0,0,0,0,0,0,11.464386282288052,-2.609334261423336,-0.8622400626787472,-0.9079721798316507,0.2910333920994322,-1.494506486982893
1970-01-03 01:15:51.000,1970-01-03 01:15:51.000,1621.0,walking,0.0,1.0,11.0939225,-6.04772368,-2.82324272,-0.20878158799999966,-1.39209394,0.834516664,1,0,0,0,0,0,0,0,0,0,0,0,0,0,0,0,0,0,11.30126250657628,-4.360836463144942,-1.9982577580631335,-0.5723492381692143,-0.38279362519709476,-0.35037780446588407
1970-01-03 01:15:51.250,1970-01-03 01:15:51.250,1621.0,walking,0.0,1.0,11.8883186,-1.7319356,-1.6352398010000002,3.74569398,-1.250202322,3.1058735200000003,1,0,0,0,0,0,0,0,0,0,0,0,0,0,0,0,0,0,11.559757151966375,-3.021684629805018,-1.7879598324920953,1.5003822295736857,-0.7300539914894115,1.347499857190454
1970-01-03 01:15:51.500,1970-01-03 01:15:51.500,1621.0,walking,0.0,1.0,9.83936114,-1.38525514,0.4031835700000001,-1.7864344080000003,1.015184202,-1.51290004,1,0,0,0,0,0,0,0,0,0,0,0,0,0,0,0,0,0,10.802226765792124,-2.1880938106000682,-0.5186205226001841,-0.07734361264822343,-0.03136136822364044,-0.05766674247937997
1970-01-03 01:15:51.750,1970-01-03 01:15:51.750,1621.0,walking,0.0,1.0,12.83917606,-3.4318187999999994,-1.5753847000000003,-2.0056639240000003,1.473031644,-2.91052704,1,0,0,0,0,0,0,0,0,0,0,0,0,0,0,0,0,0,11.699143004645155,-2.8216424292395788,-1.1308088212415524,-1.002968932419571,0.5709107595319763,-1.4591295245912073
1970-01-03 01:15:52.000,1970-01-03 01:15:52.000,1621.0,walking,0.0,1.0,9.68517434,-5.5329701400000015,-3.99831678,-0.7878532799999999,-0.33706617999999994,0.08329222000000006,1,0,0,0,0,0,0,0,0,0,0,0,0,0,0,0,0,0,10.812345568998472,-4.20278209157668,-2.7919691699420772,-0.8997099044775906,0.2074092034665787,-0.7014174440600986
1970-01-03 01:15:52.250,1970-01-03 01:15:52.250,1621.0,walking,0.0,1.0,13.473759,-2.12841544,-2.47464686,4.36696192,-1.7574905553999998,3.33852724,1,0,0,0,0,0,0,0,0,0,0,0,0,0,0,0,0,0,11.98422771736083,-3.146107764078821,-2.6081428866622325,1.6283788826205758,-0.5792232311324459,1.283198545190705
1970-01-03 01:15:52.500,1970-01-03 01:15:52.500,1621.0,walking,0.0,1.0,10.14869192,-0.24034794,0.286825366,-1.2495384259999998,0.669820968,-0.8978163859999999,1,0,0,0,0,0,0,0,0,0,0,0,0,0,0,0,0,0,11.175998674208284,-1.6659250441348046,-0.9310746605841216,0.246931422102183,-0.0791780294283504,0.2117786540292672
1970-01-03 01:15:52.750,1970-01-03 01:15:52.750,1621.0,walking,0.0,1.0,12.991088000000001,-3.59366682,-0.82025356,-1.76619164,1.2674343159999997,-3.31319699,1,0,0,0,0,0,0,0,0,0,0,0,0,0,0,0,0,0,11.975224714855283,-2.647909169850648,-0.8668754895090555,-0.7194006142311324,0.4599278449915023,-1.5198596363788062
1970-01-03 01:15:53.000,1970-01-03 01:15:53.000,1621.0,walking,0.0,1.0,10.144861099999998,-5.970630399999999,-3.24797406,-1.29917976,-0.51155732,0.4384514,1,0,0,0,0,0,0,0,0,0,0,0,0,0,0,0,0,0,11.169273064539487,-4.3404902840063,-2.246256740108638,-0.9977041193962742,0.0710012502761938,-0.5578426403125625
1970-01-03 01:15:53.250,1970-01-03 01:15:53.250,1621.0,walking,0.0,1.0,12.766511999999999,-2.54596422,-2.58430128,4.35226568,-2.31399268,3.13804448,1,0,0,0,0,0,0,0,0,0,0,0,0,0,0,0,0,0,11.872574509155926,-3.42636571860905,-2.442087447196101,1.5703691175128207,-0.8838126823444039,1.2577557266471524
1970-01-03 01:15:53.500,1970-01-03 01:15:53.500,1621.0,walking,0.0,1.0,9.06268194,-0.8427290600000001,0.51714757,-0.8986357600000001,0.37089977399999996,-0.3149036839999999,1,0,0,0,0,0,0,0,0,0,0,0,0,0,0,0,0,0,10.635313500282166,-2.1102712698850263,-0.7277892057757256,0.38520632900799145,-0.3814982390837862,0.48518944910507467
1970-01-03 01:15:53.750,1970-01-03 01:15:53.750,1621.0,walking,0.0,1.0,13.329508800000005,-3.6223972200000008,-0.6387730140000001,-2.9831409199999994,1.4237998980000002,-3.0027789460000003,1,0,0,0,0,0,0,0,0,0,0,0,0,0,0,0,0,0,11.82163039349933,-2.880542311542382,-0.6762217282548416,-1.2316555528635773,0.3412389239140946,-1.2282691681107307
1970-01-03 01:15:54.000,1970-01-03 01:15:54.000,1621.0,walking,0.0,1.0,9.7244392,-4.489098199999999,-4.00549946,-1.5088139200000004,0.6461550400000002,-0.45274883,1,0,0,0,0,0,0,0,0,0,0,0,0,0,0,0,0,0,10.898188481491422,-3.6999343405666956,-2.604887351980994,-1.364696137786768,0.46330974494173344,-0.8472961133986058
1970-01-03 01:15:54.250,1970-01-03 01:15:54.250,1621.0,walking,0.0,1.0,11.6627849,-3.19335634,-2.2251709980000003,4.32073454,-2.6026804,2.50932542,1,0,0,0,0,0,0,0,0,0,0,0,0,0,0,0,0,0,11.234857939062973,-3.4418854505395373,-2.3849159998721134,1.364403724166875,-0.7641357596870328,0.8016385911529819
1970-01-03 01:15:54.500,1970-01-03 01:15:54.500,1621.0,walking,0.0,1.0,9.926510400000002,-1.132906336,0.967257458,-0.059848957599999975,0.07092557200000002,-0.020677620000000015,1,0,0,0,0,0,0,0,0,0,0,0,0,0,0,0,0,0,10.658762245017467,-2.265700488183076,-0.4429867323769059,0.6807391010376553,-0.4298254021626865,0.3976771400220341
1970-01-03 01:15:54.750,1970-01-03 01:15:54.750,1621.0,walking,0.0,1.0,11.00533712,-2.65178788,-0.3452438840000001,-1.888903252,0.797214772,-2.55174585,1,0,0,0,0,0,0,0,0,0,0,0,0,0,0,0,0,0,10.811367071589666,-2.462371958589659,-0.386363849884592,-0.5527313357852084,0.061410649252094274,-1.051221946353914
1970-01-03 01:15:55.000,1970-01-03 01:15:55.000,1621.0,walking,0.0,1.0,11.300781800000001,-3.3633446900000004,-1.65056263,-0.8826474604000001,0.02467286100000004,-0.258870676,1,0,0,0,0,0,0,0,0,0,0,0,0,0,0,0,0,0,11.026867946025206,-2.9213239425265036,-1.1187199412990736,-0.7110964785358327,0.04670295903303187,-0.6619807148432293
1970-01-03 01:15:55.250,1970-01-03 01:15:55.250,1621.0,walking,0.0,1.0,7.86989088,0.31223387199999997,0.99359372,2.25498146,-0.25378562,0.42375071,1,0,0,0,0,0,0,0,0,0,0,0,0,0,0,0,0,0,9.636777377347764,-1.2741622101591714,0.10495292098354359,0.712669558686005,-0.07359532004827236,-0.1286169904509229
1970-01-03 01:15:55.500,1970-01-03 01:15:55.500,1621.0,walking,0.0,1.0,11.59383186,-0.5559036900000001,-0.02106900799999991,-0.5036311999999998,0.1384513556,-0.3977812,1,0,0,0,0,0,0,0,0,0,0,0,0,0,0,0,0,0,10.498514087754266,-0.9082841135245252,0.031947845832552904,0.12882527772171115,0.011295928506017974,-0.26084345079672394
1970-01-03 01:15:55.750,1970-01-03 01:15:55.750,1621.0,walking,0.0,1.0,8.12559134,-0.6713042140000001,1.002691676,-0.4565465079999999,-0.020486103999999998,0.976196884,1,0,0,0,0,0,0,0,0,0,0,0,0,0,0,0,0,0,9.453660941764456,-0.7875674832975632,0.5943041178973336,-0.15216277417005608,-0.0014277626156055517,0.34685052639983266
1970-01-03 01:15:56.000,1970-01-03 01:15:56.000,1621.0,walking,0.0,1.0,11.024491000000001,-2.85481622,-0.8858546420000001,-0.81618271,-0.1964624488,0.025341853200000014,1,0,0,0,0,0,0,0,0,0,0,0,0,0,0,0,0,0,10.145334116086923,-1.8406159138892677,-0.2631585718062843,-0.4709032341293231,-0.07950839511216196,0.18890993346435592
1970-01-03 01:15:56.250,1970-01-03 01:15:56.250,1621.0,walking,0.0,1.0,7.5016622,-2.5114875800000003,1.300051508,2.054705008,-0.363922022,0.020015518799999986,1,0,0,0,0,0,0,0,0,0,0,0,0,0,0,0,0,0,8.98126386042929,-2.182355274454424,0.642416079497551,0.741430054355946,-0.19337119821202925,0.1059408374657911
1970-01-03 01:15:56.500,1970-01-03 01:15:56.500,1621.0,walking,0.0,1.0,10.86264278,-2.47174386,-1.263659652,-1.7529743000000002,0.594386654,0.20728900600000005,1,0,0,0,0,0,0,0,0,0,0,0,0,0,0,0,0,0,9.809678993654057,-2.3297686716466743,-0.46178219886230776,-0.45592489283042137,0.12200157013117063,0.15572795631331612
1970-01-03 01:15:56.750,1970-01-03 01:15:56.750,1621.0,walking,0.0,1.0,8.18544636,-2.50382622,0.7426813680000001,-0.2942007272,0.160823239,-0.367101588,1,0,0,0,0,0,0,0,0,0,0,0,0,0,0,0,0,0,9.09449172588194,-2.4184328676755036,0.23596901397080694,-0.37829463926568385,0.13754352633144776,-0.10111117094720132
1970-01-03 01:15:57.000,1970-01-03 01:15:57.000,1621.0,walking,0.0,1.0,11.0503481,-3.7694012000000003,-0.832703366,0.11571252808,-0.125519044,-0.16874934400000002,1,0,0,0,0,0,0,0,0,0,0,0,0,0,0,0,0,0,9.955700892604083,-3.1066109226838274,-0.38311773137846106,-0.14116310330727916,0.03222845970495633,-0.13433831093837184
1970-01-03 01:15:57.250,1970-01-03 01:15:57.250,1621.0,walking,0.0,1.0,7.51746406,-1.7721581954,0.5573701420000001,1.4611412000000004,-0.32152716200000003,0.24776905300000002,1,0,0,0,0,0,0,0,0,0,0,0,0,0,0,0,0,0,8.88208850648754,-2.426845884227289,0.1617111473051197,0.6279692296912356,-0.10939486913922125,0.05337128902772059
1970-01-03 01:15:57.500,1970-01-03 01:15:57.500,1621.0,walking,0.0,1.0,11.611549,-1.07879738,-0.8432378559999999,-0.39518648,0.1015921426,-0.5643885332,1,0,0,0,0,0,0,0,0,0,0,0,0,0,0,0,0,0,10.083933659747757,-1.7401552150734614,-0.42046037734345654,0.13683772285042162,-0.02492784639089761,-0.2501021713707403
1970-01-03 01:15:57.750,1970-01-03 01:15:57.750,1621.0,walking,0.0,1.0,8.189756,-1.556201212,1.1597513240000001,-0.3084707720000001,0.226222482,0.6666310402000001,1,0,0,0,0,0,0,0,0,0,0,0,0,0,0,0,0,0,9.249883319930662,-1.6464497674089038,0.4949634073584549,-0.07691765756371677,0.07561825015713111,0.20024147294974204
1970-01-03 01:15:58.000,1970-01-03 01:15:58.000,1621.0,walking,0.0,1.0,10.11660934,-3.68368882,-1.2492944380000002,-0.332759686,0.191496448,-0.6851895299999999,1,0,0,0,0,0,0,0,0,0,0,0,0,0,0,0,0,0,9.631523063507027,-2.6842114230795513,-0.5154930464168922,-0.19972601950172558,0.12200919163698018,-0.23472502030617093
1970-01-03 01:15:58.250,1970-01-03 01:15:58.250,1621.0,walking,0.0,1.0,8.06238472,-2.37789122,-0.22026656000000008,1.527827546,-1.1956845,1.7440395,1,0,0,0,0,0,0,0,0,0,0,0,0,0,0,0,0,0,8.940594876651645,-2.528173148488619,-0.3444670080123723,0.6295279763276489,-0.40551932681564673,0.7373397280811221
1970-01-03 01:15:58.500,1970-01-03 01:15:58.500,1621.0,walking,0.0,1.0,10.94979152,-1.5317803440000002,-0.528639748,-0.47316512,0.224952152,0.030028999999999993,1,0,0,0,0,0,0,0,0,0,0,0,0,0,0,0,0,0,9.825291096364966,-2.020614550295192,-0.4511591028189559,0.10021722030523506,-0.15311493941130006,0.38987452702721276
1970-01-03 01:15:58.750,1970-01-03 01:15:58.750,1621.0,walking,0.0,1.0,8.653752399999998,-2.9343036000000007,0.7062894780000001,-0.79699948,0.919067814,-1.842066684,1,0,0,0,0,0,0,0,0,0,0,0,0,0,0,0,0,0,9.309435307097933,-2.486044148007907,0.2193561016637645,-0.3304614844341559,0.27612514365384444,-0.7065628070740138
1970-01-03 01:15:59.000,1970-01-03 01:15:59.000,1621.0,walking,0.0,1.0,10.2703174,-5.41182364,-1.334049168,-1.396743356,0.28374410799999994,-0.6826328760000001,1,0,0,0,0,0,0,0,0,0,0,0,0,0,0,0,0,0,9.732533916448782,-3.9764248628297754,-0.6805386447968446,-0.8422942256970731,0.2791753327140499,-0.6948072626916849
1970-01-03 01:15:59.250,1970-01-03 01:15:59.250,1621.0,walking,0.0,1.0,9.56737986,-2.8643930399999995,-1.0563217812,2.14994912,-1.4758618000000001,1.9894764000000005,1,0,0,0,0,0,0,0,0,0,0,0,0,0,0,0,0,0,9.65981278149673,-3.4099601680974057,-0.8982314951719494,0.594031585758741,-0.42344023053607033,0.6238425769989088
1970-01-03 01:15:59.500,1970-01-03 01:15:59.500,1621.0,walking,0.0,1.0,10.5839578,-0.6995557719999999,-0.472615436,0.08972805400000006,-0.045425261999999945,0.8202421799999999,1,0,0,0,0,0,0,0,0,0,0,0,0,0,0,0,0,0,10.066735287521366,-2.029290733860302,-0.6516701914587957,0.35195762916036644,-0.2721048560766097,0.7203235438769658
1970-01-03 01:15:59.750,1970-01-03 01:15:59.750,1621.0,walking,0.0,1.0,10.29521708,-3.0315083,0.08188171120000001,-0.5839491880000001,1.03667754,-2.7185662999999995,1,0,0,0,0,0,0,0,0,0,0,0,0,0,0,0,0,0,10.167341330079967,-2.5398164049396463,-0.22672025046936878,-0.09729298757056914,0.251856096695387,-0.9690253457519519
1970-01-03 01:16:00.000,1970-01-03 01:16:00.000,1621.0,walking,0.0,1.0,10.4379115,-4.86307238,-1.61417076,-1.8000577239999995,0.305697856,-0.35985774600000003,1,0,0,0,0,0,0,0,0,0,0,0,0,0,0,0,0,0,10.286479468417692,-3.723273942837737,-1.0304766364755928,-0.9146479822553094,0.2734112303376933,-0.6697727865764171
1970-01-03 01:16:00.250,1970-01-03 01:16:00.250,1621.0,walking,0.0,1.0,10.067767800000002,-2.66567428,-1.6127342799999995,2.05130171,-1.47798514,2.19208962,1,0,0,0,0,0,0,0,0,0,0,0,0,0,0,0,0,0,10.19017576075511,-3.1845367646854474,-1.3677811503377257,0.5090564706336375,-0.427746788151409,0.7361122599102423
1970-01-03 01:16:00.500,1970-01-03 01:16:00.500,1621.0,walking,0.0,1.0,9.63585414,-1.729541432,-0.04357447200000002,0.3982280800000001,-0.17304261799999995,1.049060956,1,0,0,0,0,0,0,0,0,0,0,0,0,0,0,0,0,0,9.946094884507726,-2.4433678128813803,-0.6006622190464717,0.4558570267725741,-0.32577794268898747,0.8898477711893731
1970-01-03 01:16:00.750,1970-01-03 01:16:00.750,1621.0,walking,0.0,1.0,11.04556008,-3.72247494,0.282515807,-0.4706033218,1.26613252,-3.12869316,1,0,0,0,0,0,0,0,0,0,0,0,0,0,0,0,0,0,10.43021491488458,-3.094940050309206,-0.08903319306212587,0.011140881761813437,0.3115311039153284,-1.0842536513446224
1970-01-03 01:16:01.000,1970-01-03 01:16:01.000,1621.0,walking,0.0,1.0,8.45168176,-3.14307802,-1.09702323,-2.35612818,0.5400600338,-0.252692446,1,0,0,0,0,0,0,0,0,0,0,0,0,0,0,0,0,0,9.5590208594775,-3.1194613792976758,-0.6729664009918137,-1.1251870726048088,0.40302090069102936,-0.6757506054231923
1970-01-03 01:16:01.250,1970-01-03 01:16:01.250,1621.0,walking,0.0,1.0,11.05657286,-4.25446654,-1.1678915879999998,0.906989848,-1.4739289,1.171566102,1,0,0,0,0,0,0,0,0,0,0,0,0,0,0,0,0,0,10.218427886625037,-3.697628576990643,-0.9596788245325516,-0.14970884189590672,-0.348401474328787,0.2317406224177242
1970-01-03 01:16:01.500,1970-01-03 01:16:01.500,1621.0,walking,0.0,1.0,9.26235834,-0.16852190200000008,0.14939814800000004,0.2684809399999999,-0.2122483228,1.62728648,1,0,0,0,0,0,0,0,0,0,0,0,0,0,0,0,0,0,9.797448354784622,-1.8999154016263022,-0.3171855074187505,0.05102909906581779,-0.29389361216363785,0.917300147107777
1970-01-03 01:16:01.750,1970-01-03 01:16:01.750,1621.0,walking,0.0,1.0,10.6050265,-2.96447054,0.09193736299999998,-0.3570422840000002,0.803374768,-2.035518746,1,0,0,0,0,0,0,0,0,0,0,0,0,0,0,0,0,0,10.153043697331928,-2.4421956792771895,-0.08017877415030422,-0.14485185046086627,0.14538931323212878,-0.5332671014990785
