timestamp,id,Acceleration x (m/s^2),Acceleration y (m/s^2),Acceleration z (m/s^2),phone,watch,activity,Gyroscope x (m/s^2),Gyroscope y (m/s^2),Gyroscope z (m/s^2),_merge
1970-02-01 11:37:10.750,1649.0,-0.58253921,-7.04119755,6.6697971,0.0,1.0,D,0.01675723333333333,0.011619904666666667,0.0018433523333333326,both
1970-02-01 11:37:11.000,1649.0,-0.62324064,-7.04203562,6.7303703200000005,0.0,1.0,D,-0.005755357420000001,0.0092763224,-0.0009973536780000015,both
1970-02-01 11:37:11.250,1649.0,-0.5686528340000001,-7.160309119999999,6.4933444,0.0,1.0,D,-0.073307029,-0.008203121800000001,0.06952985999999999,both
1970-02-01 11:37:11.500,1649.0,-0.63664815,-7.27331536,6.51776526,0.0,1.0,D,-0.015152853959999995,0.02822285032,-0.019947875519999998,both
1970-02-01 11:37:11.750,1649.0,-0.677349588,-7.26421746,6.421518260000001,0.0,1.0,D,-0.0428513272,-0.025254489800000002,-0.0020505814000000015,both
1970-02-01 11:37:12.000,1649.0,-0.576314276,-7.460542080000001,6.2974987,0.0,1.0,D,-0.0848251414,-0.0005419529999999995,-0.00013182664000000038,both
1970-02-01 11:37:12.250,1649.0,-0.628029036,-7.572590480000001,6.15528316,0.0,1.0,D,-0.0392329962,0.010109944999999999,0.0247959466,both
1970-02-01 11:37:12.500,1649.0,-0.6648997480000001,-7.57833658,6.1763522,0.0,1.0,D,0.00017709999999999948,0.01330275598,0.0105237471,both
1970-02-01 11:37:12.750,1649.0,-0.664420918,-7.48161096,6.13421416,0.0,1.0,D,0.027660922640000002,0.013515808600000002,-0.059357599999999996,both
1970-02-01 11:37:13.000,1649.0,-0.621325266,-7.5361987,6.230939859999999,0.0,1.0,D,-0.02624785,-0.008219580619999998,-0.00523896984,both
1970-02-01 11:37:13.250,1649.0,-0.636648166,-7.58551922,6.11649702,0.0,1.0,D,0.02126294288,-0.003958522400000001,0.0322583378,both
1970-02-01 11:37:13.500,1649.0,-0.712304958,-7.4792167,6.19263266,0.0,1.0,D,0.031700618380000004,0.004349261500000001,0.0294895018,both
1970-02-01 11:37:13.750,1649.0,-0.6998550800000001,-7.4380365600000005,6.2615856800000005,0.0,1.0,D,-0.003879692200000001,0.011379687480000001,0.0218198119,both
1970-02-01 11:37:14.000,1649.0,-0.764498534,-7.46580902,6.2137017,0.0,1.0,D,-0.0015354720399999994,8.836367599999979e-05,-0.002042431506,both
1970-02-01 11:37:14.250,1649.0,-0.733373898,-7.45910542,6.25009354,0.0,1.0,D,0.0084784396,-0.00204184548,0.00392283646,both
1970-02-01 11:37:14.500,1649.0,-0.777427232,-7.48256846,6.245305140000001,0.0,1.0,D,-0.0013238041600000007,0.0015788818,0.003923688388800001,both
1970-02-01 11:37:14.750,1649.0,-0.760667806,-7.44330368,6.24195326,0.0,1.0,D,0.006343383380000002,0.003920705599999999,0.00946434154,both
1970-02-01 11:37:15.000,1649.0,-0.788440528,-7.47059752,6.2376437199999994,0.0,1.0,D,0.012094853,0.00392006638,0.007334292440000001,both
1970-02-01 11:37:15.250,1649.0,-0.8085518460000001,-7.442346120000001,6.2591915,0.0,1.0,D,0.014860704999999998,0.0086046732,0.030985080600000003,both
1970-02-01 11:37:15.500,1649.0,-0.9344868500000001,-7.373393060000001,6.281696999999999,0.0,1.0,D,-0.0079359515,0.0005086637400000003,0.019480223999999997,both
1970-02-01 11:37:15.750,1649.0,-0.890912348,-7.4605419600000005,6.23764368,0.0,1.0,D,-0.006231530899999999,-0.013126721040000002,0.0020098876000000003,both
1970-02-01 11:37:16.000,1649.0,-0.886123972,-7.47299192,6.2232785,0.0,1.0,D,-0.023914920080000002,-0.00609597582,-0.00757749188,both
1970-02-01 11:37:16.250,1649.0,-0.8305785,-7.454316979999999,6.2046037400000005,0.0,1.0,D,0.0037811026,-0.01334019964,-0.014181705499999999,both
1970-02-01 11:37:16.500,1649.0,-0.8061576540000001,-7.493581839999999,6.19359032,0.0,1.0,D,-0.00644564856,-0.00034408039999999924,-0.01141191142,both
1970-02-01 11:37:16.750,1649.0,-0.7672917733333334,-7.436440300000001,6.251609833333333,0.0,1.0,D,0.03428420388333333,-0.0020833020050000004,-0.00115039675,both
1970-02-01 11:37:17.000,1649.0,-0.7568370879999999,-7.5208759999999995,6.20364606,0.0,1.0,D,-0.0339276068,0.0020005666659999996,-0.01588682112,both
1970-02-01 11:37:17.250,1649.0,-0.7209240640000001,-7.488314600000001,6.19885762,0.0,1.0,D,0.0071890437599999996,-0.014406103194,-0.00842885136,both
1970-02-01 11:37:17.500,1649.0,-0.6763919119999999,-7.370998759999999,6.36453628,0.0,1.0,D,0.11009188239999998,0.029481725800000004,-0.0018234664999999997,both
1970-02-01 11:37:17.750,1649.0,-0.403452914,-6.8241631400000005,7.208253119999999,0.0,1.0,D,1.2092306499999999,0.1102280232,-0.14158552279999997,both
1970-02-01 11:37:18.000,1649.0,0.45558666600000003,-3.0714914300000005,8.57438454,0.0,1.0,D,0.8589700879999999,-0.45329796400000005,-0.33056246600000005,both
1970-02-01 11:37:18.250,1649.0,1.02827972,-5.35986954,9.43390306,0.0,1.0,D,-1.2873248199999998,-2.06930416,-0.3669945106,both
1970-02-01 11:37:18.500,1649.0,7.6118555400000005,-5.25596112,4.0459913400000005,0.0,1.0,D,-0.539722872,-1.239250348,-0.5457458900000001,both
1970-02-01 11:37:18.750,1649.0,8.12469336,-5.23201904,3.06005912,0.0,1.0,D,0.0391418082,0.1178965492,0.1649985426,both
1970-02-01 11:37:19.000,1649.0,5.0443136,-7.3590278,6.064782259999999,0.0,1.0,D,0.9948965000000001,2.05326838,1.097318488,both
1970-02-01 11:37:19.250,1649.0,1.6182109999999998,-3.8625356600000003,7.7349772,0.0,1.0,D,0.03701075399999998,1.1237186639999996,1.1273589679999998,both
1970-02-01 11:37:19.500,1649.0,-0.8602665709999998,-6.097762299999999,7.70337358,0.0,1.0,D,-0.90383635,0.013496475600000002,-0.1873878376,both
1970-02-01 11:37:19.750,1649.0,-0.08885481499999999,-8.05286762,5.94507224,0.0,1.0,D,-0.41935544599999997,-0.0926047696,-0.12709323779999998,both
1970-02-01 11:37:20.000,1649.0,-0.042407295000000005,-7.743536619999999,5.88713242,0.0,1.0,D,-0.046511152,-0.16568079,0.016077503400000002,both
1970-02-01 11:37:20.250,1649.0,-0.05533598879999999,-7.880963919999999,5.84547342,0.0,1.0,D,-0.05631041012,0.0460945234,0.04718269166,both
1970-02-01 11:37:20.500,1649.0,-0.1803133188,-7.91113072,5.690807999999999,0.0,1.0,D,-0.01966574078,0.029689133,-0.00586726318,both
1970-02-01 11:37:20.750,1649.0,-0.12237363386,-7.8522334,5.71379248,0.0,1.0,D,0.021878932799999997,-0.0188874054,0.0028682244,both
1970-02-01 11:37:21.000,1649.0,-0.17408838600000004,-7.9288478,5.700863640000001,0.0,1.0,D,-0.004966422399999999,-0.006530763479999998,9.891025999999998e-05,both
1970-02-01 11:37:21.250,1649.0,-0.14200608600000003,-7.871387,5.714749960000001,0.0,1.0,D,0.007174822660000001,0.00433322932,0.004148405799999999,both
1970-02-01 11:37:21.500,1649.0,-0.1257255158,-7.909694400000001,5.7171442,0.0,1.0,D,0.0012093416600000005,0.011150922366,0.01906210798,both
1970-02-01 11:37:21.750,1649.0,-0.22867619999999994,-7.877611999999999,5.828235080000001,0.0,1.0,D,0.0653358628,0.018180069400000002,-0.013107812899999998,both
1970-02-01 11:37:22.000,1649.0,-0.182228679,-7.74114242,5.8737249600000006,0.0,1.0,D,-0.003480219399999999,-0.009729859599999998,-0.0295128852,both
1970-02-01 11:37:22.250,1649.0,-0.331148022,-7.804349360000001,5.796631619999999,0.0,1.0,D,-0.0049688193999999995,0.1300347468,-0.008422139,both
1970-02-01 11:37:22.500,1649.0,-0.221972424,-7.880963599999999,5.8335024,0.0,1.0,D,0.013354421,-0.0323110694,0.00478676546,both
1970-02-01 11:37:22.750,1649.0,-0.2856581896,-7.88096398,5.75162072,0.0,1.0,D,-0.028620511748000003,0.040763834799999996,-0.0092729666,both
1970-02-01 11:37:23.000,1649.0,-0.2631527,-7.82541842,5.7860973399999995,0.0,1.0,D,0.0022698106000000008,-0.011222560987999999,0.029077724399999998,both
1970-02-01 11:37:23.250,1649.0,-0.28853123599999997,-7.8752178,5.776041640000001,0.0,1.0,D,-0.0030576823399999986,-0.006536143340000002,0.00905128538,both
1970-02-01 11:37:23.500,1649.0,-0.317261652,-7.87665412,5.6970329600000005,0.0,1.0,D,-0.014990401399999997,-0.005471997079999999,0.014804512220000001,both
1970-02-01 11:37:23.750,1649.0,-0.333063382,-7.93603052,5.69511764,0.0,1.0,D,-0.010302757999999999,0.0021981731560000006,0.00116891469,both
1970-02-01 11:37:24.000,1649.0,-0.33545759199999997,-7.9274112,5.688413880000001,0.0,1.0,D,-0.005613677099999999,-0.0016357135000000002,0.0009550094639999999,both
1970-02-01 11:37:24.250,1649.0,-0.29906572200000003,-7.92358052,5.662077600000001,0.0,1.0,D,-0.00689199472,-0.0046184539399999995,-0.0007494135600000001,both
1970-02-01 11:37:24.500,1649.0,-0.49586910399999995,-8.33346768,5.5198622,0.0,1.0,D,0.05403926694,-0.02933365382,0.08298116804,both
1970-02-01 11:37:24.750,1649.0,-2.2709302200000003,-8.04424848,6.56995886,0.0,1.0,D,1.58354594,-0.5082765439999999,1.9116140800000003,both
1970-02-01 11:37:25.000,1649.0,-0.6941089519999999,-0.8089707839999999,8.79082028,0.0,1.0,D,0.6250220539999999,-0.012714885999999991,0.673563346,both
1970-02-01 11:37:25.250,1649.0,-3.91574682,-3.60922902,8.0730387,0.0,1.0,D,-0.11448423399999999,0.223560926,-0.2915663314,both
1970-02-01 11:37:25.500,1649.0,-2.57786694,-2.2172402599999996,8.942134,0.0,1.0,D,-0.030755089000000003,-0.09324920119999999,-0.15798185180000002,both
1970-02-01 11:37:25.750,1649.0,-1.8620006200000003,-2.4499565999999993,8.53033126,0.0,1.0,D,-0.058452394,0.061852982599999995,-1.69324072,both
1970-02-01 11:37:26.000,1649.0,-0.12716204400000003,-6.2236974599999995,8.296657,0.0,1.0,D,-0.47774333680000003,-0.013143445700000003,-1.93675878,both
1970-02-01 11:37:26.250,1649.0,1.6708834200000002,-6.51722642,7.9791859,0.0,1.0,D,-0.207170502,-0.07194876080000001,-0.34674304,both
1970-02-01 11:37:26.500,1649.0,1.3696929,-5.729534060000001,7.82499934,0.0,1.0,D,0.026762158300000005,0.0196643548,0.06572708208,both
1970-02-01 11:37:26.750,1649.0,1.32468188,-5.768320279999999,7.737850399999999,0.0,1.0,D,-0.0403471563,-0.0325321106,0.0314245018,both
1970-02-01 11:37:27.000,1649.0,1.2868534600000001,-5.92442228,7.75077912,0.0,1.0,D,-0.0051934302000000016,-0.045954441400000004,0.039946618,both
1970-02-01 11:37:27.250,1649.0,1.25189814,-5.820513780000001,7.67991084,0.0,1.0,D,-0.039287751999999995,0.0009134642200000004,0.016939568448000004,both
1970-02-01 11:37:27.500,1649.0,1.2882900199999998,-5.99002328,7.613351920000001,0.0,1.0,D,-0.04610544478,0.007305050884,0.009056611740000001,both
1970-02-01 11:37:27.750,1649.0,1.23370222,-6.023542000000001,7.552060299999999,0.0,1.0,D,0.0037476537199999994,-0.006331186219999998,-0.0015951801200000005,both
1970-02-01 11:37:28.000,1649.0,1.24854624,-6.035034200000001,7.594198459999999,0.0,1.0,D,-0.002857305448,0.00048629329999999983,-0.0009558084,both
1970-02-01 11:37:28.250,1649.0,1.2973880000000002,-6.00151532,7.53769524,0.0,1.0,D,-0.0083990774,0.007089334572,0.004158579464,both
1970-02-01 11:37:28.500,1649.0,1.27105176,-6.089622199999999,7.53961044,0.0,1.0,D,-0.011383415599999998,0.00580995214,-0.0190634402,both
1970-02-01 11:37:28.750,1649.0,1.20928134,-6.1207465999999995,7.467305540000001,0.0,1.0,D,0.0005452016000000004,-0.018692620599999998,0.0269571561,both
1970-02-01 11:37:29.000,1649.0,1.3926772,-5.98571376,7.595634820000001,0.0,1.0,D,0.02376445152,-0.0014375743400000002,0.00416225452,both
1970-02-01 11:37:29.250,1649.0,1.236575228,-6.05035708,7.59611372,0.0,1.0,D,0.015244199859999998,0.0190167278,-0.0094740358,both
1970-02-01 11:37:29.500,1649.0,1.251419308,-6.02019024,7.582227399999999,0.0,1.0,D,0.034852523600000004,-0.0080360879,0.021415011,both
1970-02-01 11:37:29.750,1649.0,1.2155062600000002,-5.9790100200000005,7.6554898,0.0,1.0,D,-0.011166900200000001,-0.0016445017999999992,0.0203497466,both
1970-02-01 11:37:30.000,1649.0,1.2394483,-5.974700319999999,7.616703799999999,0.0,1.0,D,0.013757890319999999,-0.010381268059999999,0.00820679756,both
1970-02-01 11:37:30.250,1649.0,1.23274454,-5.9842771599999995,7.585100339999999,0.0,1.0,D,0.0011877698999999994,0.0036802222400000003,0.000536893292,both
1970-02-01 11:37:30.500,1649.0,1.24806742,-5.9292106,7.7057682,0.0,1.0,D,0.022490714640000003,0.00474399552,-0.00031425298799999995,both
1970-02-01 11:37:30.750,1649.0,1.2116755199999998,-5.9172394399999995,7.661235980000001,0.0,1.0,D,0.007576426399999998,-0.0018610171339999994,0.00522538856,both
1970-02-01 11:37:31.000,1649.0,1.26147492,-5.90574744,7.66027848,0.0,1.0,D,-0.0009460079600000004,-0.005270022914,-0.0009529855611999999,both
1970-02-01 11:37:31.250,1649.0,1.2624326200000002,-5.939745,7.66410902,0.0,1.0,D,-0.009894442199999999,-0.001009071692,-0.00500088396,both
1970-02-01 11:37:31.500,1649.0,1.24758858,-5.93639316,7.62915368,0.0,1.0,D,0.0007577756599999999,-0.0037790787800000003,0.007356396798800001,both
1970-02-01 11:37:31.750,1649.0,1.2485462600000001,-5.92011252,7.69188194,0.0,1.0,D,0.0018224009600000003,-0.00441871674,0.00394787008,both
1970-02-01 11:37:32.000,1649.0,1.2913226666666668,-5.971986833333333,7.614708666666666,0.0,1.0,D,-0.027898476255,-0.028919798083333337,0.009877842,both
1970-02-01 11:37:32.250,1649.0,1.34527204,-6.02402092,7.59802906,0.0,1.0,D,-0.074450533,0.0437312354,-0.014587730799999999,both
1970-02-01 11:37:32.500,1649.0,1.145116746,-6.345801660000001,7.284388659999999,0.0,1.0,D,-0.08339971199999999,-0.0242332214,0.042723974,both
1970-02-01 11:37:32.750,1649.0,1.34479316,-6.245724040000001,7.37680484,0.0,1.0,D,0.0052264531259999985,-0.017417872799999998,0.029303559600000008,both
1970-02-01 11:37:33.000,1649.0,1.1757625,-6.376447499999999,7.33370912,0.0,1.0,D,-0.009048089,0.01304869042,-0.0231074502,both
1970-02-01 11:37:33.250,1649.0,1.261474966,-6.281158360000001,7.440490539999999,0.0,1.0,D,0.03526824172,0.0109189608,-0.0043593292,both
1970-02-01 11:37:33.500,1649.0,1.1781567199999998,-6.37548984,7.28726164,0.0,1.0,D,0.013536848200000002,0.015606124199999998,-0.01458586654,both
1970-02-01 11:37:33.750,1649.0,1.20592946,-6.16958848,7.51662604,0.0,1.0,D,0.0599819518,0.023701707300000003,0.0060804762299999995,both
1970-02-01 11:37:34.000,1649.0,1.13027266,-6.0757356399999995,7.461559460000001,0.0,1.0,D,0.0729780702,-0.0142218128,0.011406851311,both
1970-02-01 11:37:34.250,1649.0,1.17480484,-5.939266280000001,7.659320599999999,0.0,1.0,D,0.005435352079999999,-0.00293320564,0.00480460881,both
1970-02-01 11:37:34.500,1649.0,1.20114104,-5.9895444,7.606648219999999,0.0,1.0,D,0.00372762668,-0.002296177422,0.0129022164,both
1970-02-01 11:37:34.750,1649.0,1.14080716,-5.98331956,7.5841426400000005,0.0,1.0,D,-0.0022374280400000003,-0.007196074279999999,0.009706210099999998,both
1970-02-01 11:37:35.000,1649.0,1.19012772,-5.975179160000001,7.60329628,0.0,1.0,D,0.01565965344,-0.00485201328,-0.004355600039999999,both
1970-02-01 11:37:35.250,1649.0,1.23705408,-5.94884292,7.61766162,0.0,1.0,D,0.0058582090000000005,-0.003787387940000002,0.0026756245000000003,both
1970-02-01 11:37:35.500,1649.0,1.18677586,-5.98236192,7.64495536,0.0,1.0,D,0.00904995366,-0.00421605016,0.00012090751999999997,both
1970-02-01 11:37:35.750,1649.0,1.19826802,-5.95889868,7.620055740000001,0.0,1.0,D,-0.0007504788000000001,-0.0005941511840000001,0.004808071182000001,both
1970-02-01 11:37:36.000,1649.0,1.19204308,-5.98236176,7.627717240000001,0.0,1.0,D,0.0015976303340000009,-0.0076219671,0.00480594056,both
1970-02-01 11:37:36.250,1649.0,1.2337022000000002,-5.943096880000001,7.668418720000001,0.0,1.0,D,0.0028759478000000005,-0.00016511599999999958,0.0035276232159999997,both
1970-02-01 11:37:36.500,1649.0,1.21263322,-5.9651236,7.621971059999998,0.0,1.0,D,0.0047949153999999996,-0.0020817397000000002,-0.003717027272,both
1970-02-01 11:37:36.750,1649.0,1.2389694599999999,-5.94740644,7.670333959999999,0.0,1.0,D,-0.004792092279999999,0.002605636754,-0.000308394046,both
1970-02-01 11:37:37.000,1649.0,1.2442367,-5.92346444,7.644476620000001,0.0,1.0,D,-0.001808712519999999,0.002606116112,0.0003304450380000001,both
1970-02-01 11:37:37.250,1649.0,1.2356175600000001,-5.9588985999999995,7.6143096,0.0,1.0,D,-0.0011691275,0.0006889598200000001,0.0016085493880000003,both
1970-02-01 11:37:37.500,1649.0,1.22364658,-5.943575839999999,7.627238520000001,0.0,1.0,D,0.0020234700000000003,0.00026072340800000003,0.003101517418,both
1970-02-01 11:37:37.750,1649.0,1.2322657,-5.945491199999999,7.652138120000001,0.0,1.0,D,0.00031425298,0.001535844948,0.001399491206,both
1970-02-01 11:37:38.000,1649.0,1.22699844,-5.972306080000001,7.61000006,0.0,1.0,D,-0.001177596400000001,0.00047031422000000015,0.0016128102659999997,both
1970-02-01 11:37:38.250,1649.0,1.2293926599999998,-5.95698328,7.642561359999999,0.0,1.0,D,0.008407866,-0.004217914575999999,0.00310524576,both
1970-02-01 11:37:38.500,1649.0,1.2322657000000001,-6.00055788,7.634420940000001,0.0,1.0,D,0.022256302644,0.000895354684,0.006301039242,both
1970-02-01 11:37:38.750,1649.0,0.9564536520000001,-5.687874980000001,7.9480615,0.0,1.0,D,0.41853812799999995,0.07972705499999999,0.2672889552,both
1970-02-01 11:37:39.000,1649.0,0.373226118,-4.79914736,8.441266899999999,0.0,1.0,D,0.26002679,0.15216503680000001,0.200390354,both
1970-02-01 11:37:39.250,1649.0,-0.072574242,-4.48023972,8.996721399999998,0.0,1.0,D,0.425774904,0.0927188048,0.33120822800000005,both
1970-02-01 11:37:39.500,1649.0,-0.360836122,-3.33629014,8.7539494,0.0,1.0,D,-0.36230948,0.06459470340000001,-0.27726994688,both
1970-02-01 11:37:39.750,1649.0,-0.15110405926,-5.164502420000001,8.4838834,0.0,1.0,D,-0.12091912,-0.0214777004,-0.13239463440000002,both
1970-02-01 11:37:40.000,1649.0,0.10268132600000002,-4.348558560000001,8.27415152,0.0,1.0,D,0.24404143399999997,-0.1833972586,-0.1747925808,both
1970-02-01 11:37:40.250,1649.0,0.7151181020000001,-4.48167636,8.94883766,0.0,1.0,D,0.030135372,-0.0800672452,-0.0060542698,both
1970-02-01 11:37:40.500,1649.0,0.673937838,-4.38590814,8.7606534,0.0,1.0,D,-0.058496066,-0.0099738047,-0.012871323773999998,both
1970-02-01 11:37:40.750,1649.0,0.733314046,-4.39117544,8.701277000000001,0.0,1.0,D,-0.02035981358,-0.010187017270000001,0.0003380616399999998,both
1970-02-01 11:37:41.000,1649.0,0.783113442,-4.496041459999999,8.861688599999999,0.0,1.0,D,0.1266458246,0.07801623719999999,0.0768244742,both
1970-02-01 11:37:41.250,1649.0,0.28559833800000006,-3.91903882,8.975652400000001,0.0,1.0,D,0.309658252,0.10059984339999999,0.20827810200000002,both
1970-02-01 11:37:41.500,1649.0,0.068683664,-2.9580063,8.956019799999998,0.0,1.0,D,-0.15330566400000004,0.021557224652,-0.098518054,both
1970-02-01 11:37:41.750,1649.0,0.1639728898,-4.04641028,9.1370218,0.0,1.0,D,-0.054236074,-0.009122392400000002,-0.03289776314000001,both
1970-02-01 11:37:42.000,1649.0,0.489584316,-4.00475116,8.431211200000002,0.0,1.0,D,-0.3015872832,-0.26691425679999997,-0.197163026,both
1970-02-01 11:37:42.250,1649.0,0.809928494,-4.56355784,8.9062208,0.0,1.0,D,-0.022913308000000004,-0.01870710988,-0.0005155886000000005,both
1970-02-01 11:37:42.500,1649.0,1.0483909679999999,-4.57552894,8.6490834,0.0,1.0,D,-0.023340690400000003,-0.0014506241200000001,0.0063027434,both
1970-02-01 11:37:42.750,1649.0,0.9698611679999999,-4.6267648800000005,8.5590616,0.0,1.0,D,0.01287744868,0.0011054781399999999,0.010564227586,both
1970-02-01 11:37:43.000,1649.0,0.944003796,-4.5305178,8.6280147,0.0,1.0,D,0.0049927882000000015,-0.0027305391,0.006090862666,both
1970-02-01 11:37:43.250,1649.0,0.962678568,-4.56978274,8.5882709,0.0,1.0,D,-0.0028927255999999985,-0.00017550229999999995,0.0048136635,both
1970-02-01 11:37:43.500,1649.0,0.96028438,-4.5506292,8.6035936,0.0,1.0,D,-0.00907136614,0.0028071316199999997,0.0018310297559999997,both
1970-02-01 11:37:43.750,1649.0,0.948792228,-4.5918094,8.5724691,0.0,1.0,D,-0.01610253692,0.0019544939400000004,-0.0011512845439999998,both
1970-02-01 11:37:44.000,1649.0,0.9358635339999999,-4.662677959999999,8.549963700000001,0.0,1.0,D,-0.01141537404,0.0006761765599999998,0.00417503751,both
1970-02-01 11:37:44.250,1649.0,0.9310751179999999,-4.6832679200000005,8.537992599999999,0.0,1.0,D,-0.0129062112,0.0064291371,-8.655272000000006e-05,both
1970-02-01 11:37:44.500,1649.0,0.933948168,-4.647833759999999,8.549006,0.0,1.0,D,0.006694654600000002,0.0013158678780000003,0.0016178704799999996,both
1970-02-01 11:37:44.750,1649.0,0.9339481679999999,-4.66459318,8.5355985,0.0,1.0,D,0.005627046500000001,-0.001455310934,0.00289746599,both
1970-02-01 11:37:45.000,1649.0,0.948313368,-4.66555078,8.5303312,0.0,1.0,D,-0.0011912320000000002,-0.0023078955199999996,0.00140641537,both
1970-02-01 11:37:45.250,1649.0,0.918625276,-4.669860460000001,8.5341622,0.0,1.0,D,-0.00289421664,0.0002495382,0.002896986612,both
1970-02-01 11:37:45.500,1649.0,0.940651924,-4.65310094,8.5423021,0.0,1.0,D,0.0007286408000000004,-0.0029457223999999997,0.0050269827,both
1970-02-01 11:37:45.750,1649.0,0.935863524,-4.7153504,8.505431399999999,0.0,1.0,D,-0.030379104499999997,0.0004618453600000001,-0.001789644268,both
1970-02-01 11:37:46.000,1649.0,0.9243713440000001,-4.76323452,8.471433999999999,0.0,1.0,D,-0.017812019800000002,-0.0033750240799999996,0.00034248260000000017,both
1970-02-01 11:37:46.250,1649.0,0.9669881480000001,-4.793401380000001,8.4484498,0.0,1.0,D,-0.0129110048,-0.00507891452,-0.0007231547000000001,both
1970-02-01 11:37:46.500,1649.0,0.9775226340000002,-4.82165292,8.437436,0.0,1.0,D,-0.013973073400000003,0.00024953818000000036,0.0016189356519999997,both
1970-02-01 11:37:46.750,1649.0,0.959326702,-4.855650580000001,8.4125364,0.0,1.0,D,-0.0077945401399999985,-0.00102877916,-8.548745199999999e-05,both
1970-02-01 11:37:47.000,1649.0,0.962678588,-4.86857926,8.4187612,0.0,1.0,D,-0.008224640084000001,-0.0014575480799999998,0.00012942964399999994,both
1970-02-01 11:37:47.250,1649.0,0.9669881420000002,-4.90209806,8.387158,0.0,1.0,D,-0.004815793944,-0.0012444951800000001,0.0005555354200000002,both
1970-02-01 11:37:47.500,1649.0,0.9961973800000001,-4.91406912,8.407269,0.0,1.0,D,0.00029470539999999995,-0.00167251848,0.002687342606,both
1970-02-01 11:37:47.750,1649.0,0.971776528,-4.89778848,8.3737506,0.0,1.0,D,0.00519422946,-0.003377420858,0.003113768006,both
1970-02-01 11:37:48.000,1649.0,0.9952397080000001,-4.884380999999999,8.4101423,0.0,1.0,D,0.0030632212039999997,-0.00231231624,0.00396629905,both
1970-02-01 11:37:48.250,1649.0,0.994760866,-4.89587314,8.408227,0.0,1.0,D,-0.004180896679999999,-0.00188631696,0.00354040637,both
1970-02-01 11:37:48.500,1649.0,0.9918878260000001,-4.90353462,8.416846199999998,0.0,1.0,D,0.002849848804,-0.0020993699200000005,0.001622930408,both
1970-02-01 11:37:48.750,1649.0,1.0019434600000001,-4.929392,8.386679,0.0,1.0,D,-0.0020503676560000004,0.00024421184000000004,0.00290124769,both
1970-02-01 11:37:49.000,1649.0,1.010562588,-4.9001826799999995,8.4010446,0.0,1.0,D,0.0005062670400000005,-0.00039494673999999983,0.0005576660080000001,both
1970-02-01 11:37:49.250,1649.0,0.9794379879999999,-4.91071716,8.415409599999998,0.0,1.0,D,0.0005062669799999999,0.00130947626,0.002049036158,both
1970-02-01 11:37:49.500,1649.0,0.999549268,-4.88102906,8.3689622,0.0,1.0,D,0.00306290158,-0.0027385286000000003,0.00226208905,both
1970-02-01 11:37:49.750,1649.0,1.00529534,-4.89012708,8.410142500000001,0.0,1.0,D,0.0024216124399999996,-0.00188791482,0.00439368322,both
1970-02-01 11:37:50.000,1649.0,1.012956786,-4.91167482,8.3938616,0.0,1.0,D,-0.006526609040000001,0.0038645128399999997,0.0007717840800000002,both
1970-02-01 11:37:50.250,1649.0,1.050306348,-4.904013439999999,8.420676799999999,0.0,1.0,D,-0.02391023284,-0.00238028,-0.025060452500000004,both
1970-02-01 11:37:50.500,1649.0,0.9813533379999999,-5.022765819999999,8.319162360000002,0.0,1.0,D,-0.0182959162,-0.0075101141319999995,-0.0061652181399999995,both
1970-02-01 11:37:50.750,1649.0,1.0388141780000002,-4.93465916,8.3076706,0.0,1.0,D,0.0260190836,-0.0055926382000000005,0.0145009124,both
1970-02-01 11:37:51.000,1649.0,1.0728118400000002,-4.949982060000001,8.350766,0.0,1.0,D,-0.0021038967000000007,-0.0019707389200000003,-0.001265001558,both
1970-02-01 11:37:51.250,1649.0,1.0527005480000002,-4.96243196,8.4000865,0.0,1.0,D,0.0010918960599999997,-0.00047936893999999986,0.00022636877999999988,both
1970-02-01 11:37:51.500,1649.0,1.0503063480000001,-4.9605165200000005,8.3665676,0.0,1.0,D,0.01238369912,-0.00367516244,-0.00233026606,both
1970-02-01 11:37:51.750,1649.0,1.05988314,-4.9217305,8.3948192,0.0,1.0,D,0.0055654206,0.00015941684799999963,-0.0010516823380000001,both
1970-02-01 11:37:52.000,1649.0,1.05557354,-4.9399264,8.3895522,0.0,1.0,D,-0.0012546152000000002,-0.00048123313999999995,0.00022770024,both
1970-02-01 11:37:52.250,1649.0,1.0723329599999998,-4.919336299999999,8.380933,0.0,1.0,D,0.006202235669999999,-0.0013334447200000002,1.4647379999999966e-05,both
1970-02-01 11:37:52.500,1649.0,1.0426448599999998,-4.9447148400000005,8.380933200000001,0.0,1.0,D,0.00108896648,-0.0011203918659999999,1.4647440000000069e-05,both
1970-02-01 11:37:52.750,1649.0,1.0512639799999999,-4.912153699999999,8.3967347,0.0,1.0,D,-0.00274598544,0.0016492956399999999,1.464740000000006e-05,both
1970-02-01 11:37:53.000,1649.0,1.0489296399999999,-4.93178614,8.398111400000001,0.0,1.0,D,0.007691049,-0.0006962035459999997,-0.0016882842800000001,both
1970-02-01 11:37:53.250,1649.0,1.05715972,-4.94543302,8.4267522,0.0,1.0,D,0.0002335591599999999,0.00036858150400000003,1.651163800000001e-05,both
1970-02-01 11:37:53.500,1649.0,1.0590751,-4.909519980000001,8.4262731,0.0,1.0,D,0.0016499348200000002,0.0013573600039999997,0.0015053252139999999,both
1970-02-01 11:37:53.750,1649.0,1.0456675800000002,-4.948785040000001,8.4225024,0.0,1.0,D,-0.00012650010000000018,-0.00201734462,-0.00019973704400000008,both
1970-02-01 11:37:54.000,1649.0,1.0542867,-4.9004220400000005,8.404546,0.0,1.0,D,8.65526800000004e-05,0.000965395924,-0.0006258429040000001,both
1970-02-01 11:37:54.250,1649.0,1.04566756,-4.9578831,8.376772800000001,0.0,1.0,D,-0.0039614521,0.0018176075119999999,-0.00019973713600000015,both
1970-02-01 11:37:54.500,1649.0,1.05763856,-4.899943160000001,8.4327972,0.0,1.0,D,0.0017909758800000002,-9.986854400000002e-05,-0.00041278997600000005,both
1970-02-01 11:37:54.750,1649.0,1.0791864,-4.96841764,8.4203476,0.0,1.0,D,-0.00609198116,0.0022437133,-0.001904160166,both
1970-02-01 11:37:55.000,1649.0,1.0494982880000001,-4.91574504,8.4418954,0.0,1.0,D,0.006265086540000001,-0.0005259743399999997,-0.000412789964,both
1970-02-01 11:37:55.250,1649.0,1.0686519,-4.91957556,8.3987998,0.0,1.0,D,-0.0037518613,-0.000741423958,-0.0014761901400000004,both
1970-02-01 11:37:55.500,1649.0,1.0710460999999998,-4.9167026599999994,8.444768199999999,0.0,1.0,D,0.00647467724,-0.0022327942599999996,-0.0004109260199999999,both
1970-02-01 11:37:55.750,1649.0,1.0619481399999997,-4.88270492,8.4529086,0.0,1.0,D,-0.0001286838800000002,-0.001592783314,0.0008665393339999999,both
1970-02-01 11:37:56.000,1649.0,1.06913074,-4.954052279999999,8.409813399999999,0.0,1.0,D,0.0005107942399999999,0.00032490569999999987,-0.0006250439180000001,both
1970-02-01 11:37:56.250,1649.0,1.0466252399999998,-4.88462042,8.424657,0.0,1.0,D,-0.0016245283400000005,0.00010865699120000006,0.0006563094000000001,both
1970-02-01 11:37:56.500,1649.0,1.074398,-4.93202566,8.400715400000001,0.0,1.0,D,0.00071585786,-0.000958738,-0.0006199838799999999,both
1970-02-01 11:37:56.750,1649.0,1.0590751,-4.90760464,8.425136199999999,0.0,1.0,D,-0.0029043369239999998,0.00032075111199999986,-0.00062104916,both
1970-02-01 11:37:57.000,1649.0,1.0672154,-4.936335280000001,8.3954477,0.0,1.0,D,0.0043420175400000005,-0.00266023158,0.001294828968,both
1970-02-01 11:37:57.250,1649.0,1.08541132,-4.9028162,8.4327976,0.0,1.0,D,-0.00460652304,0.00032229575,-0.0019008045860000003,both
1970-02-01 11:37:57.500,1649.0,1.08014404,-4.903773800000001,8.428488000000002,0.0,1.0,D,0.0034882083999999993,-0.00074382092,-0.0006218481879999999,both
1970-02-01 11:37:57.750,1649.0,1.04997712,-4.90568932,8.446683799999999,0.0,1.0,D,0.0005054680000000006,-0.0009568735599999999,-0.00403069426,both
1970-02-01 11:37:58.000,1649.0,1.04518874,-4.9406446,8.4002362,0.0,1.0,D,-0.007804660399999999,0.003942543809999999,-0.00126020788,both
1970-02-01 11:37:58.250,1649.0,1.02507745,-4.90664708,8.4418954,0.0,1.0,D,-0.0012000207340000012,-0.002449043096,0.005983590340000001,both
1970-02-01 11:37:58.500,1649.0,1.0427945099999998,-4.93920816,8.4476412,0.0,1.0,D,7.787097999999975e-05,0.0022379075260000004,-0.0031774707559999995,both
1970-02-01 11:37:58.750,1649.0,1.06769422,-4.94543318,8.392095799999998,0.0,1.0,D,-0.00418329336,0.0013856428619999997,-0.0006207827600000002,both
1970-02-01 11:37:59.000,1649.0,1.0356119200000002,-4.929152660000001,8.4055036,0.0,1.0,D,0.0017809091600000005,0.00010636665200000027,-0.001472195368,both
1970-02-01 11:37:59.250,1649.0,1.0389638100000003,-4.9253218599999995,8.3849136,0.0,1.0,D,-0.0005635248800000001,0.001170991924,-0.0023238743599999995,both
1970-02-01 11:37:59.500,1649.0,1.0499771,-4.9229275999999995,8.4222628,0.0,1.0,D,-0.0026932016,0.00010636680200000019,-0.001259142638,both
1970-02-01 11:37:59.750,1649.0,1.04470986,-4.91191412,8.424657400000001,0.0,1.0,D,-0.0020527644799999993,0.001172589892,1.837577200000007e-05,both
1970-02-01 11:38:00.000,1649.0,1.0365695799999999,-4.93058896,8.428487800000001,0.0,1.0,D,-0.00013592770000000025,-0.0009583651227999997,0.000657907344,both
1970-02-01 11:38:00.250,1649.0,1.1007341999999998,-4.908083599999999,8.4730198,0.0,1.0,D,0.005400890800000002,-0.0011731222000000013,-0.003388606164,both
1970-02-01 11:38:00.500,1649.0,1.017416002,-4.9665021199999995,8.3638442,0.0,1.0,D,-0.0026951190999999993,-0.0033036511000000004,0.013229519299999997,both
1970-02-01 11:38:00.750,1649.0,1.03896378,-4.92771616,8.4112496,0.0,1.0,D,-0.00014407702999999963,-0.0041595914,-0.00018935064000000015,both
1970-02-01 11:38:01.000,1649.0,1.0619481399999997,-4.9286736399999995,8.4485992,0.0,1.0,D,0.00752582712,-0.00330737974,0.00641528842,both
1970-02-01 11:38:01.250,1649.0,1.03800611,-4.92244882,8.440458799999998,0.0,1.0,D,-0.0033353962,0.00010444917519999996,-0.001683490722,both
1970-02-01 11:38:01.500,1649.0,1.0605115999999999,-4.9138294799999995,8.391616800000001,0.0,1.0,D,0.0007137270799999998,0.00159656502,0.0006593985799999997,both
1970-02-01 11:38:01.750,1649.0,1.06242699,-4.90042208,8.4217842,0.0,1.0,D,-0.01164701548,0.00713354338,-0.0008297344400000004,both
1970-02-01 11:38:02.000,1649.0,1.02124671,-4.980867400000001,8.373421,0.0,1.0,D,-0.0007837684200000004,-0.005225122080000001,0.0051372376,both
1970-02-01 11:38:02.250,1649.0,1.03656959,-4.961234940000001,8.408855400000002,0.0,1.0,D,0.01924341564,-0.007781650279999999,-0.01084183512,both
1970-02-01 11:38:02.500,1649.0,1.0700884199999998,-4.89611252,8.410771,0.0,1.0,D,0.002412557779999999,-0.0009637980000000001,-0.0029590380199999997,both
1970-02-01 11:38:02.750,1649.0,1.0873266799999999,-4.9138296,8.3944902,0.0,1.0,D,-0.0016351279799999992,-0.00032442625000000036,-0.000189563712,both
1970-02-01 11:38:03.000,1649.0,1.0997765200000003,-4.918139200000001,8.445726200000001,0.0,1.0,D,0.0013488914200000001,0.0007416903880000001,0.0013009541599999998,both
1970-02-01 11:38:03.250,1649.0,1.08493248,-4.89994316,8.416516999999999,0.0,1.0,D,0.0013488911119999998,-0.00011052123700000006,2.263677999999993e-05,both
1970-02-01 11:38:03.500,1649.0,1.0839748,-4.885577919999999,8.4294458,0.0,1.0,D,0.0019875172600000005,-0.004584898079999999,-0.0031728901599999996,both
1970-02-01 11:38:03.750,1649.0,1.0873266799999999,-4.91191416,8.443811,0.0,1.0,D,-0.0012082761199999996,-0.0003238403999999997,-0.0021076257,both
1970-02-01 11:38:04.000,1649.0,1.08445364,-4.900422140000001,8.4380646,0.0,1.0,D,-0.002064322712,9.970867999999989e-05,-0.000613911866,both
1970-02-01 11:38:04.250,1649.0,1.0755950833333334,-4.8894087,8.438064666666667,0.0,1.0,D,0.0008109326333333333,-0.0004690714000000001,-0.0001872202316666667,both
1970-02-01 11:38:04.500,1649.0,1.0858901600000002,-4.92149104,8.4193898,0.0,1.0,D,-0.005045465016,0.001592144227,-0.00146702888,both
1970-02-01 11:38:04.750,1649.0,1.07679218,-4.905689199999999,8.4035884,0.0,1.0,D,-0.0009968210600000004,0.0007403587799999998,-0.00125434884,both
1970-02-01 11:38:05.000,1649.0,1.0511144,-4.91882746,8.4091846,0.0,1.0,D,-0.00036117784600000027,9.880323999999982e-05,0.000878257256,both
1970-02-01 11:38:05.250,1649.0,1.0790068599999998,-4.89231182,8.428398,0.0,1.0,D,0.00411058928,-0.0030985878411999997,-0.00167699256,both
1970-02-01 11:38:05.500,1649.0,1.06176862,-4.891832920000001,8.4269618,0.0,1.0,D,-0.0016420518599999999,0.0011623632799999998,-0.0008245679039999999,both
1970-02-01 11:38:05.750,1649.0,1.0541072,-4.90476166,8.414033,0.0,1.0,D,0.00134036894,-0.001181378268,-0.0006111954900000001,both
1970-02-01 11:38:06.000,1649.0,1.04979762,-4.88848102,8.439411400000001,0.0,1.0,D,-0.001855211192,0.00052315132,-0.000398302428,both
1970-02-01 11:38:06.250,1649.0,1.0780491799999998,-4.89087526,8.447072799999999,0.0,1.0,D,-0.0019135345799999998,0.0015982694799999999,-0.00049380331,both
1970-02-01 11:38:06.500,1649.0,1.0799645000000002,-4.9018586200000005,8.4333962,0.0,1.0,D,-0.00266316096,0.0022437132400000004,-0.0004860268839999999,both
1970-02-01 11:38:06.750,1649.0,1.07757034,-4.8792333,8.4485996,0.0,1.0,D,0.0020240024199999996,0.00117844884,-5.992116800000001e-05,both
1970-02-01 11:38:07.000,1649.0,1.0478822599999997,-4.90365416,8.4481206,0.0,1.0,D,-0.0018109494999999996,0.00224371328,0.00121839628,both
1970-02-01 11:38:07.250,1649.0,1.06320514,-4.9050907,8.426093799999999,0.0,1.0,D,-0.0028762140199999997,0.0013915016599999996,0.005266401086,both
1970-02-01 11:38:07.500,1649.0,1.054586,-4.8998234400000005,8.4208266,0.0,1.0,D,0.00159789654,-0.000952080088,-0.00027297400000000015,both
1970-02-01 11:38:07.750,1649.0,1.04883994,-4.868220079999999,8.4873856,0.0,1.0,D,0.004807005620000001,-0.0004860268799999999,-0.00061252702,both
1970-02-01 11:38:08.000,1649.0,1.0627263,-4.90078118,8.436628200000001,0.0,1.0,D,-0.0008921586600000002,-0.00160455456,-0.00026631605999999987,both
1970-02-01 11:38:08.250,1649.0,1.07050746,-4.9113156600000005,8.4575773,0.0,1.0,D,-0.00302268776,9.986852799999998e-05,-0.0009054747319999999,both
1970-02-01 11:38:08.500,1649.0,1.0671855000000001,-4.90078118,8.4399496,0.0,1.0,D,-0.0011052118199999998,-0.001604554552,-0.001757686352,both
1970-02-01 11:38:08.750,1649.0,1.05138378,-4.9376518,8.4150505,0.0,1.0,D,-0.0002530003599999997,-0.0011784487719999996,-0.00111852768,both
1970-02-01 11:38:09.000,1649.0,1.0796353599999997,-4.903654220000001,8.46054,0.0,1.0,D,-0.0019574234680000005,0.002443450328,-0.0011185276719999997,both
1970-02-01 11:38:09.250,1649.0,1.0710162200000002,-4.895513859999999,8.4298943,0.0,1.0,D,-0.00195742332,-0.0003262372200000003,-0.0004793688800000001,both
1970-02-01 11:38:09.500,1649.0,1.0494684,-4.92568088,8.444738099999999,0.0,1.0,D,0.00017310555999999964,-0.00330897774,0.0022903185,both
1970-02-01 11:38:09.750,1649.0,1.0609605800000002,-4.88066992,8.4370771,0.0,1.0,D,0.00017310562000000007,-0.00352203064,-0.00026631612,both
1970-02-01 11:38:10.000,1649.0,1.0796353799999998,-4.89647158,8.4231905,0.0,1.0,D,0.0025149828160000005,-0.004801626,-0.002182726952,both
1970-02-01 11:38:10.250,1649.0,1.0734104199999999,-4.917540580000001,8.4155294,0.0,1.0,D,-0.00110734248,0.0007374292800000001,-0.0028216192859999998,both
1970-02-01 11:38:10.500,1649.0,1.08442374,-4.8878524400000005,8.4705956,0.0,1.0,D,-4.2078399999999695e-05,0.0005243764280000003,-0.00026498455199999997,both
1970-02-01 11:38:10.750,1649.0,1.08394492,-4.9127521000000005,8.4399502,0.0,1.0,D,0.00123623932,-0.0022453110800000004,-0.00260856642,both
1970-02-01 11:38:11.000,1649.0,1.08059306,-4.90365418,8.4433019,0.0,1.0,D,0.00026450507999999995,-0.0018522283467999998,0.001405935988,both
1970-02-01 11:38:11.250,1649.0,1.06766432,-4.89311968,8.4883128,0.0,1.0,D,0.0012783174200000002,0.001424791154,-6.657912000000016e-06,both
1970-02-01 11:38:11.500,1649.0,1.07628346,-4.88928902,8.434952199999998,0.0,1.0,D,-0.0031957932599999996,0.0012117382200000002,0.0008455536440000001,both
1970-02-01 11:38:11.750,1649.0,1.06383362,-4.928553859999999,8.411489,0.0,1.0,D,-0.0004261057800000002,-0.003688478026,-0.0032024510800000004,both
1970-02-01 11:38:12.000,1649.0,1.0896909799999999,-4.8663048,8.4866668,0.0,1.0,D,0.005752427879999999,-0.0009187904000000004,0.002976082362,both
1970-02-01 11:38:12.250,1649.0,1.1011832000000001,-4.89455626,8.4363884,0.0,1.0,D,-0.0012783173400000001,0.00035952673999999996,0.0025499767199999995,both
1970-02-01 11:38:12.500,1649.0,1.06766434,-4.89264088,8.4296848,0.0,1.0,D,0.0002130529,0.00227700268,-0.00021971088999999996,both
1970-02-01 11:38:12.750,1649.0,1.08298724,-4.9031753,8.4244174,0.0,1.0,D,-0.0027735224980000002,0.00333928446,0.0008485363199999998,both
1970-02-01 11:38:13.000,1649.0,1.05760868,-4.873966180000001,8.438782999999997,0.0,1.0,D,0.0010604705799999998,0.00163411562,-0.00085514106,both
1970-02-01 11:38:13.250,1649.0,1.0686220199999998,-4.90940032,8.4785264,0.0,1.0,D,-0.00107181594,0.00163283738,-0.0017059145099999995,both
1970-02-01 11:38:13.500,1649.0,1.0647913,-4.89551398,8.4459656,0.0,1.0,D,-0.0021382519199999997,0.0007797735480000003,0.00127778472,both
1970-02-01 11:38:13.750,1649.0,1.08777562,-4.899284700000001,8.4562603,0.0,1.0,D,-0.0025631859113999997,-0.0009237972670000001,-0.0044756019600000006,both
1970-02-01 11:38:14.000,1649.0,1.1246463599999998,-4.899195059999999,8.4661962,0.0,1.0,D,-0.0004308994600000001,-0.001135571911,0.00191454665,both
1970-02-01 11:38:14.250,1649.0,1.09831016,-4.9025468000000005,8.452789,0.0,1.0,D,-0.0014958975800000002,0.00312569886,0.00084906902,both
1970-02-01 11:38:14.500,1649.0,1.09400058,-4.89344888,8.4240882,0.0,1.0,D,-0.0002165150000000001,0.003126551222,-3.994699999999981e-06,both
1970-02-01 11:38:14.750,1649.0,1.0839449399999999,-4.903504440000001,8.4783172,0.0,1.0,D,-0.0036253610799999994,0.0012090750999999996,0.0008482168400000001,both
1970-02-01 11:38:15.000,1649.0,1.08011418,-4.9011102399999995,8.4816688,0.0,1.0,D,0.0023382553400000004,-0.0017752632800000002,0.001275920476,both
1970-02-01 11:38:15.250,1649.0,1.0719739000000001,-4.91116598,8.4376154,0.0,1.0,D,-0.0019228022400000003,0.0014205301032,0.000210656066,both
1970-02-01 11:38:15.500,1649.0,1.09926784,-4.9102082199999995,8.4658672,0.0,1.0,D,-4.900260000000132e-06,-0.001135678431,0.001062441476,both
1970-02-01 11:38:15.750,1649.0,1.06143944,-4.896800799999999,8.4447984,0.0,1.0,D,-0.0017092167999999998,0.001208009789,0.00021012343000000006,both
1970-02-01 11:38:16.000,1649.0,1.09591594,-4.90158918,8.4701766,0.0,1.0,D,-0.00253096162,0.0005718339860000001,-0.0004852812400000001,both
1970-02-01 11:38:16.250,1649.0,1.08202956,-4.91212362,8.451023000000001,0.0,1.0,D,-0.0008721852200000001,0.0029694246580000004,-0.0010319748715999998,both
1970-02-01 11:38:16.500,1649.0,1.0863391400000002,-4.9130812399999995,8.459642200000001,0.0,1.0,D,0.00040613251999999935,0.00211721304,0.0015246596399999999,both
1970-02-01 11:38:16.750,1649.0,1.09447942,-4.883872040000001,8.4591634,0.0,1.0,D,0.0014713965200000006,0.0006258428579999998,-0.0008189219972000001,both
1970-02-01 11:38:17.000,1649.0,1.08681796,-4.899194979999999,8.4419252,0.0,1.0,D,0.0014713965999999998,-0.0010785802620000002,-0.0003928161971999998,both
1970-02-01 11:38:17.250,1649.0,1.10309854,-4.84987454,8.478795999999999,0.0,1.0,D,0.0006191852000000001,-0.004913532260000001,0.000885501,both
1970-02-01 11:38:17.500,1649.0,1.0671855000000001,-4.93031966,8.4371368,0.0,1.0,D,0.0006191847999999997,0.007230482420000002,-0.0027363978372000005,both
1970-02-01 11:38:17.750,1649.0,1.0743680999999998,-4.89536416,8.42756,0.0,1.0,D,0.00422350696,-0.001092961318,-0.00144343324,both
1970-02-01 11:38:18.000,1649.0,1.08346608,-4.88961818,8.4582058,0.0,1.0,D,-0.00238113218,0.00018535602999999995,-0.00101732748,both
1970-02-01 11:38:18.250,1649.0,1.08298726,-4.9068562799999995,8.421335,0.0,1.0,D,0.002297935239999999,-0.0038690403299999994,-0.002501667,both
1970-02-01 11:38:18.500,1649.0,1.1083657800000002,-4.9030258,8.4198984,0.0,1.0,D,-0.006013151372,0.00230789534,-0.0014346448600000001,both
1970-02-01 11:38:18.750,1649.0,1.10214086,-4.932713720000001,8.446713599999999,0.0,1.0,D,0.0022960709999999994,0.0016688965399999998,0.0006955643993999999,both
1970-02-01 11:38:19.000,1649.0,1.09591596,-4.9006314799999995,8.438094799999998,0.0,1.0,D,-0.0028170918,0.004864796239999999,-0.0022873890606,both
1970-02-01 11:38:19.250,1649.0,1.09591594,-4.905898680000001,8.4127156,0.0,1.0,D,0.00421056436,0.0012403405599999996,0.0004849615993999999,both
1970-02-01 11:38:19.500,1649.0,1.0729315799999999,-4.90877168,8.433306,0.0,1.0,D,-0.0028248148599999993,0.0033670345000000003,0.00027590352,both
1970-02-01 11:38:19.750,1649.0,1.0714950600000002,-4.906377520000001,8.4175044,0.0,1.0,D,0.00271429382,-0.00046813055400000004,0.0004891694,both
1970-02-01 11:38:20.000,1649.0,1.0633547800000003,-4.91164476,8.442404,0.0,1.0,D,0.0001565937199999999,0.0005962818000000002,-0.00078829562,both
1970-02-01 11:38:20.250,1649.0,1.0619182200000001,-4.91212362,8.451023000000001,0.0,1.0,D,-0.0026130936,0.002300704758,-0.00121440142,both
1970-02-01 11:38:20.500,1649.0,1.0566509800000001,-4.9087718,8.4380944,0.0,1.0,D,-0.0030485203400000003,-0.00026338658,-0.00120641196,both
1970-02-01 11:38:20.750,1649.0,1.07963534,-4.910687,8.4093643,0.0,1.0,D,0.0035561191599999993,-0.0017547567400000002,-0.0007803061600000002,both
1970-02-01 11:38:21.000,1649.0,1.05521448,-4.905898639999999,8.397872099999999,0.0,1.0,D,-0.00390179702,-0.00047729175200000005,-0.0014186125700000002,both
1970-02-01 11:38:21.250,1649.0,1.05569334,-4.9240946800000005,8.4658672,0.0,1.0,D,-0.0004932175599999996,0.00442271148,0.0009251821199999999,both
1970-02-01 11:38:21.500,1649.0,1.06191824,-4.88913918,8.431869599999999,0.0,1.0,D,0.0016395487,0.00165478178,0.0009232646600000002,both
1970-02-01 11:38:21.750,1649.0,1.0537779600000001,-4.9360658399999995,8.4371368,0.0,1.0,D,0.0031324099140000007,-0.0013267868499999996,0.001561145024,both
1970-02-01 11:38:22.000,1649.0,1.05377798,-4.89392766,8.433306,0.0,1.0,D,0.0046230347,-0.00239258391,-0.0018470620000000004,both
1970-02-01 11:38:22.250,1649.0,1.0815507,-4.923615799999999,8.4280388,0.0,1.0,D,-0.0017696704399999999,-0.0036717000320000007,0.00262800734,both
1970-02-01 11:38:22.500,1649.0,1.069579688,-4.9030258,8.4266022,0.0,1.0,D,-0.0017695107000000004,0.0027200462000000003,-0.005468161900000002,both
1970-02-01 11:38:22.750,1649.0,1.059524066,-4.94468482,8.4251659,0.0,1.0,D,-0.02669605906,0.010603641899999999,-0.0037643781599999994,both
1970-02-01 11:38:23.000,1649.0,1.1074080800000001,-4.9772461,8.384464399999999,0.0,1.0,D,0.0242235804,-0.0198629208,0.00326636686,both
1970-02-01 11:38:23.250,1649.0,1.1299136,-4.87477428,8.433305999999998,0.0,1.0,D,-0.015831960200000002,0.0125195196,-0.059582636200000004,both
1970-02-01 11:38:23.500,1649.0,1.08586026,-5.03470698,8.3969143,0.0,1.0,D,0.000999218000000001,-0.010916297020000002,0.0100856568,both
1970-02-01 11:38:23.750,1649.0,1.1653477200000002,-4.83838244,8.4376159,0.0,1.0,D,0.022735299199999996,-0.0023903471800000003,-0.009519255979999999,both
1970-02-01 11:38:24.000,1649.0,1.1696573399999999,-4.91882744,8.4586844,0.0,1.0,D,0.01591877932,-0.009633186,-0.004620051700000001,both
1970-02-01 11:38:24.250,1649.0,1.2180202,-4.86136666,8.4759232,0.0,1.0,D,-0.01007638924,0.0127351298,-0.017400828200000003,both
1970-02-01 11:38:24.500,1649.0,1.189768628,-4.92888316,8.438573400000001,0.0,1.0,D,0.0227319444,-0.0064411213999999994,0.0004972118400000003,both
1970-02-01 11:38:24.750,1649.0,1.1883320800000001,-4.8254536,8.457727,0.0,1.0,D,0.004196555640000002,-0.0032451148000000006,0.009019114759999999,both
1970-02-01 11:38:25.000,1649.0,1.19024746,-4.88387206,8.438573199999999,0.0,1.0,D,-0.013060408011999999,0.00485121424,7.057379999999991e-05,both
1970-02-01 11:38:25.250,1649.0,1.17683994,-4.83742462,8.446235,0.0,1.0,D,0.0022794526199999996,-0.00196642488,0.0064621073000000005,both
1970-02-01 11:38:25.500,1649.0,1.1830648799999999,-4.8455648,8.470655400000002,0.0,1.0,D,-0.0017683388999999998,-0.0019662118799999998,0.0034791536800000003,both
1970-02-01 11:38:25.750,1649.0,1.18210718,-4.85466274,8.466346,0.0,1.0,D,0.005262406559999999,-0.005162005244,-0.00312548594,both
1970-02-01 11:38:26.000,1649.0,1.19790894,-4.867591559999999,8.4960342,0.0,1.0,D,-0.0043249735800000005,0.0016556873479999998,-0.00099495698,both
1970-02-01 11:38:26.250,1649.0,1.1639112600000001,-4.81060964,8.456290599999999,0.0,1.0,D,0.01165399312,-0.017945178552,-0.007386543519999999,both
1970-02-01 11:38:26.500,1649.0,1.18354374,-4.74500844,8.588929400000001,0.0,1.0,D,0.060442464200000004,0.024664759074000002,-0.00717306476,both
1970-02-01 11:38:26.750,1649.0,1.21802018,-4.68994188,8.537693200000001,0.0,1.0,D,-0.011356516399999999,-0.0038844868000000006,0.007314638316800001,both
1970-02-01 11:38:27.000,1649.0,1.1749245799999999,-4.70765898,8.5367353,0.0,1.0,D,-0.029251842379999997,-0.002818263646,0.008592156716800001,both
1970-02-01 11:38:27.250,1649.0,1.2137106599999998,-4.7871464,8.502259,0.0,1.0,D,-0.009011071919999999,-0.0009001483439999994,-0.0012088089392,both
1970-02-01 11:38:27.500,1649.0,1.1902474599999997,-4.79815972,8.4639518,0.0,1.0,D,-0.004111814368,0.002294899176,-0.0033385920799999997,both
1970-02-01 11:38:27.750,1649.0,1.2151472,-4.80246944,8.452938399999999,0.0,1.0,D,-0.006030728199999999,0.00186767508,-0.0061071610999999994,both
1970-02-01 11:38:28.000,1649.0,1.203655,-4.80630012,8.476880399999999,0.0,1.0,D,0.0050485011,-0.0028191159199999994,0.007314744802000001,both
1970-02-01 11:38:28.250,1649.0,1.2505813600000002,-4.8900972199999995,8.6128715,0.0,1.0,D,0.02188159666,0.025092304399999998,-0.0001438105600000003,both
1970-02-01 11:38:28.500,1649.0,0.756896932,-4.3590632,8.9030486,0.0,1.0,D,0.621412408,0.318892238,0.29067337800000004,both
1970-02-01 11:38:28.750,1649.0,0.18755577848000002,-2.86029294,9.211421399999999,0.0,1.0,D,0.0137855844,-0.1199967096,-0.014418354162,both
1970-02-01 11:38:29.000,1649.0,0.49401358799999995,-3.5613151600000004,9.1649744,0.0,1.0,D,-0.0797446286,-0.0202879608,-0.01590972408,both
1970-02-01 11:38:29.250,1649.0,0.4504391160000001,-3.3807923599999996,9.027068,0.0,1.0,D,-0.0288269096,0.015077326799999999,-0.02251266032,both
1970-02-01 11:38:29.500,1649.0,0.581162538,-3.71071338,9.239673,0.0,1.0,D,0.008243814399999999,-0.06524398539999998,-0.021020862799999998,both
1970-02-01 11:38:29.750,1649.0,0.765516082,-3.73609192,8.9983378,0.0,1.0,D,-0.205448712,-0.07632321542,-0.053191371220000006,both
1970-02-01 11:38:30.000,1649.0,0.8933664460000001,-4.14406398,8.9356094,0.0,1.0,D,-0.05354231820000001,-0.013472931999999998,-0.006745520600000001,both
1970-02-01 11:38:30.250,1649.0,0.893366436,-4.20918616,8.8135054,0.0,1.0,D,-0.0215841753,-0.00729418479,-0.0052543635,both
1970-02-01 11:38:30.500,1649.0,0.8981548440000001,-4.26951998,8.8345742,0.0,1.0,D,-0.0100789992,0.0005890911800000003,-0.00397636576,both
1970-02-01 11:38:30.750,1649.0,0.920181504,-4.308306,8.809195800000001,0.0,1.0,D,-0.0213700568,-0.011980443160000001,-0.008238062639999998,both
1970-02-01 11:38:31.000,1649.0,0.950348448,-4.30255994,8.786211699999999,0.0,1.0,D,-0.0175321219,0.0029356027600000003,-0.004831772991999999,both
1970-02-01 11:38:31.250,1649.0,0.9532214800000001,-4.37678024,8.7445525,0.0,1.0,D,-0.0066664247199999995,-0.0040951428,0.00177286604,both
1970-02-01 11:38:31.500,1649.0,0.9589675599999999,-4.3767800999999995,8.7234836,0.0,1.0,D,-0.005606753026,-0.008147674879999999,0.0009254483999999999,both
1970-02-01 11:38:31.750,1649.0,0.9460388820000001,-4.40742594,8.714385400000001,0.0,1.0,D,-0.014981080260000001,0.0012266519320000002,-0.003974767888,both
1970-02-01 11:38:32.000,1649.0,0.9699808759999999,-4.399285600000001,8.7517351,0.0,1.0,D,-0.007948417360000001,0.0018673020800000003,-0.001845730418,both
1970-02-01 11:38:32.250,1649.0,0.957531034,-4.41221428,8.7220468,0.0,1.0,D,0.00355691802,-0.001754224306,-0.0014199974780000004,both
1970-02-01 11:38:32.500,1649.0,0.9704597359999999,-4.4107778,8.734018,0.0,1.0,D,-0.00176972362,0.00186751504,-0.0003545732,both
1970-02-01 11:38:32.750,1649.0,0.9695020400000001,-4.4337622,8.7268356,0.0,1.0,D,-0.006457100507999999,0.0027196200199999998,-0.0003544667399999998,both
1970-02-01 11:38:33.000,1649.0,0.97620582,-4.413172,8.7287506,0.0,1.0,D,0.0037679468700000003,-0.00260787381,0.00028597024699999996,both
1970-02-01 11:38:33.250,1649.0,0.96471365,-4.434241,8.699062699999999,0.0,1.0,D,-0.00028229491599999985,-0.0011182613320000001,0.001566205065,both
1970-02-01 11:38:33.500,1649.0,0.979557694,-4.41317202,8.7110335,0.0,1.0,D,-0.0007086671600000004,-0.0015445801440000001,-0.0003510578970000001,both
1970-02-01 11:38:33.750,1649.0,0.9972748200000001,-4.4107778,8.7364122,0.0,1.0,D,0.0016338492799999997,-0.002823749736,-0.00013715271999999984,both
1970-02-01 11:38:34.000,1649.0,0.973811622,-4.41939696,8.6827823,0.0,1.0,D,0.007599329968,-0.005593437200000001,-0.002054628702,both
1970-02-01 11:38:34.250,1649.0,1.0178649480000002,-4.40886256,8.7723253,0.0,1.0,D,-0.001132642406,-0.0030344056880000003,-0.0012050802599999997,both
1970-02-01 11:38:34.500,1649.0,0.975727,-4.396412579999999,8.7143856,0.0,1.0,D,-0.007950335079999999,0.0016527579399999992,-0.0024833976400000005,both
1970-02-01 11:38:34.750,1649.0,1.0121188319999999,-4.457225419999999,8.6933166,0.0,1.0,D,-0.001560665746,-0.00516642606,-0.0009905361120000002,both
1970-02-01 11:38:35.000,1649.0,1.005415086,-4.42370644,8.7177375,0.0,1.0,D,-0.0045438852,0.00250310512,-0.0033337449799999996,both
1970-02-01 11:38:35.250,1649.0,0.9872191520000001,-4.4438179,8.6961896,0.0,1.0,D,0.0009964483400000004,-0.0036746296100000006,-0.000777749564,both
1970-02-01 11:38:35.500,1649.0,1.015949552,-4.4313679399999995,8.7143854,0.0,1.0,D,-0.0017726000399999997,0.0014391722,0.0009262473360000002,both
1970-02-01 11:38:35.750,1649.0,1.003499726,-4.460098360000001,8.6985838,0.0,1.0,D,-0.004540796258,0.001866449748,-0.00141861264,both
1970-02-01 11:38:36.000,1649.0,1.014991886,-4.433762159999999,8.672247500000001,0.0,1.0,D,-6.444853999999987e-05,0.00101599588,-0.0012074772431999998,both
1970-02-01 11:38:36.250,1649.0,1.0034997399999999,-4.46488684,8.6870915,0.0,1.0,D,-0.0032604547320000004,0.0003766775600000001,-0.0026986876431999993,both
1970-02-01 11:38:36.500,1649.0,1.0125977,-4.45818306,8.701935999999998,0.0,1.0,D,0.0012128036399999998,-0.0011153317999999998,-0.0007805724600000001,both
1970-02-01 11:38:36.750,1649.0,1.02073798,-4.45770414,8.684218499999998,0.0,1.0,D,-0.0017699368680000002,-0.00047617317999999986,0.001136903447,both
1970-02-01 11:38:37.000,1649.0,1.014991886,-4.47063308,8.697626099999999,0.0,1.0,D,0.00099575603,-0.000479369004,0.0024186828880000005,both
1970-02-01 11:38:37.250,1649.0,1.017386088,-4.4624926600000006,8.657882599999999,0.0,1.0,D,-0.006034989490000001,0.000585895448,-0.00035100464,both
1970-02-01 11:38:37.500,1649.0,1.0125977000000002,-4.48499834,8.6540518,0.0,1.0,D,0.0029123797,-0.000693061016,-0.0012025769740000001,both
1970-02-01 11:38:37.750,1649.0,1.013076526,-4.45195818,8.6885282,0.0,1.0,D,-0.00454468416,0.005059207164,-0.002693787442,both
1970-02-01 11:38:38.000,1649.0,1.0207379859999999,-4.482125260000001,8.7493408,0.0,1.0,D,0.004406093680000001,0.00591333572,-0.0009914416800000001,both
1970-02-01 11:38:38.250,1649.0,1.0796353599999997,-4.46823892,8.709597,0.0,1.0,D,-0.005179581880000002,0.008471248939999999,0.0049726544,both
1970-02-01 11:38:38.500,1649.0,0.834469068,-4.47206948,8.6296308,0.0,1.0,D,-0.027124776160000003,0.00484881736,-0.02996737988,both
1970-02-01 11:38:38.750,1649.0,1.0853814199999998,-4.5606549,8.662191799999999,0.0,1.0,D,-0.024356205400000004,-0.0111309477,-0.035718848000000004,both
1970-02-01 11:38:39.000,1649.0,1.01403421,-4.57502034,8.609998200000001,0.0,1.0,D,0.008027353736000001,0.0012257465000000002,0.0007135676000000008,both
1970-02-01 11:38:39.250,1649.0,1.0465953479999999,-4.494096140000001,8.6741628,0.0,1.0,D,0.0291176721,-0.010919759579999999,0.011367702580000002,both
1970-02-01 11:38:39.500,1649.0,1.0791565,-4.235043559999999,8.7771138,0.0,1.0,D,0.11753461899999999,0.0046331012,0.014350442600000003,both
1970-02-01 11:38:39.750,1649.0,1.0825083599999998,-4.36959776,8.712948800000001,0.0,1.0,D,-0.014132330200000005,-0.019868247,0.038851792839999996,both
1970-02-01 11:38:40.000,1649.0,1.03558204,-4.30734846,8.8015343,0.0,1.0,D,-0.0120018024,0.00569809952,-0.01888554108,both
1970-02-01 11:38:40.250,1649.0,0.969980868,-4.302081079999999,8.7316238,0.0,1.0,D,-0.0064624266,0.00015872420000000026,0.00795912312,both
1970-02-01 11:38:40.500,1649.0,1.120336766,-4.385878140000001,8.736891199999999,0.0,1.0,D,-0.0407639402,-0.007937285459999999,-0.029112079800000003,both
1970-02-01 11:38:40.750,1649.0,1.1921628060000002,-4.36097846,8.6396862,0.0,1.0,D,-0.03437219471400001,-0.033290418599999996,-0.06021795860000001,both
1970-02-01 11:38:41.000,1649.0,1.4378079000000001,-4.559218540000001,8.5855772,0.0,1.0,D,-0.0420419918,-0.035846946799999994,-0.288823814,both
1970-02-01 11:38:41.250,1649.0,1.78113642,-4.240310720000001,8.701456799999999,0.0,1.0,D,0.0448845452,-0.022636922079999997,-0.17441516,both
1970-02-01 11:38:41.500,1649.0,1.8251897400000001,-4.22163598,8.7153434,0.0,1.0,D,-0.023503994000000004,0.0265794128,0.013283315200000001,both
1970-02-01 11:38:41.750,1649.0,1.7557578800000002,-4.3221924000000005,8.682781799999999,0.0,1.0,D,0.017401628,0.0067650680800000005,0.055042105400000006,both
1970-02-01 11:38:42.000,1649.0,1.6571167800000002,-4.340388259999999,8.6305886,0.0,1.0,D,-0.0192455996,0.0157115848,0.05887876400000001,both
1970-02-01 11:38:42.250,1649.0,1.60635968,-4.40503182,8.634419099999999,0.0,1.0,D,-0.005823267914,0.0005848301,0.0324602054,both
1970-02-01 11:38:42.500,1649.0,1.60827506,-4.37007638,8.6468691,0.0,1.0,D,0.012924320956000001,0.0014362427600000001,0.018186460800000002,both
1970-02-01 11:38:42.750,1649.0,1.55368724,-4.35954186,8.6909221,0.0,1.0,D,0.0031238881000000005,0.012088887060000001,0.0426875426,both
1970-02-01 11:38:43.000,1649.0,1.49335334,-4.43424106,8.583661800000002,0.0,1.0,D,-0.02222684774,0.00612553662,0.048863946000000005,both
1970-02-01 11:38:43.250,1649.0,1.46941134,-4.47781564,8.6128712,0.0,1.0,D,-0.011999670899999999,0.0014389057999999997,0.008596417720000001,both
1970-02-01 11:38:43.500,1649.0,1.4430751,-4.47781554,8.651178599999998,0.0,1.0,D,0.0014204236399999997,-0.00175864502,-0.0007759918800000001,both
1970-02-01 11:38:43.750,1649.0,1.4516942399999997,-4.48212518,8.627715599999998,0.0,1.0,D,-0.0004985437599999996,0.00015765911999999997,0.0015688681570000002,both
1970-02-01 11:38:44.000,1649.0,1.4430751,-4.4711117,8.634897999999998,0.0,1.0,D,-7.073348000000008e-05,-0.0013324327199999999,0.00028905955400000005,both
1970-02-01 11:38:44.250,1649.0,1.4406809199999997,-4.4897867,8.613350299999999,0.0,1.0,D,0.00121014044,-0.0006913566200000001,-0.00013928332400000003,both
1970-02-01 11:38:44.500,1649.0,1.4483423599999998,-4.4648869399999995,8.5999426,0.0,1.0,D,-6.972153999999977e-05,0.000798735168,-0.0007771104799999999,both
1970-02-01 11:38:44.750,1649.0,1.4425962799999998,-4.4912232,8.6368133,0.0,1.0,D,0.0022676820600000002,0.00036751629999999985,8.042747400000008e-05,both
1970-02-01 11:38:45.000,1649.0,1.4579191799999998,-4.46871754,8.6368134,0.0,1.0,D,-0.0019933760399999997,0.0018588864200000002,-0.001410942706,both
1970-02-01 11:38:45.250,1649.0,1.43301946,-4.482125160000001,8.619574799999999,0.0,1.0,D,0.003120692199999999,0.00015526237599999975,-0.0014117416560000002,both
1970-02-01 11:38:45.500,1649.0,1.4703690000000003,-4.46105616,8.6607552,0.0,1.0,D,0.00439900986,-5.779062200000004e-05,0.0037015274599999995,both
1970-02-01 11:38:45.750,1649.0,1.41003518,-4.5027152,8.6133499,0.0,1.0,D,-0.0019876769999999998,0.0018635203159999998,0.0041235853199999995,both
1970-02-01 11:38:46.000,1649.0,1.44355396,-4.45578894,8.6894858,0.0,1.0,D,0.007387875260000001,-0.003887948796,0.00817057824,both
1970-02-01 11:38:46.250,1649.0,1.4157812,-4.460098459999999,8.636334600000001,0.0,1.0,D,-0.00071005203,0.0018630408360000004,0.0019938022,both
1970-02-01 11:38:46.500,1649.0,1.43493482,-4.465365759999999,8.652136200000001,0.0,1.0,D,-0.007315969680000001,0.0056970341200000005,-0.0018399779399999997,both
1970-02-01 11:38:46.750,1649.0,1.4215272799999998,-4.4787733,8.6257999,0.0,1.0,D,-0.0017792579199999996,0.00164689874,0.0005057343799999999,both
1970-02-01 11:38:47.000,1649.0,1.3822623799999998,-4.49218082,8.5970697,0.0,1.0,D,-0.0013571469259999998,-0.000912931618,0.00263945886,both
1970-02-01 11:38:47.250,1649.0,1.4301464200000003,-4.4495639,8.655009399999999,0.0,1.0,D,-0.0017821874199999998,0.002070660962,-0.002048556838,both
1970-02-01 11:38:47.500,1649.0,1.4085986,-4.4668022800000005,8.656924799999999,0.0,1.0,D,-0.0017779263280000006,-0.00048256486000000014,7.856326000000003e-05,both
1970-02-01 11:38:47.750,1649.0,1.4009371599999998,-4.463450379999999,8.625799800000001,0.0,1.0,D,-0.0007126619200000002,0.000156593894,-0.0016258598199999999,both
1970-02-01 11:38:48.000,1649.0,1.4009371400000001,-4.4802098599999995,8.6382498,0.0,1.0,D,0.0003528685,-0.00026924561999999984,0.001356347924,both
1970-02-01 11:38:48.250,1649.0,1.4210484399999999,-4.464886959999999,8.6473478,0.0,1.0,D,0.0016311862199999995,0.0016482303180000001,7.803065999999999e-05,both
1970-02-01 11:38:48.500,1649.0,1.4052467399999997,-4.49984232,8.6277157,0.0,1.0,D,0.00141259408,-0.00112593124,0.0007218764140000001,both
1970-02-01 11:38:48.750,1649.0,1.4234426599999999,-4.469675239999999,8.646868999999999,0.0,1.0,D,-0.00242374284,0.00036432041999999996,-0.000768321946,both
1970-02-01 11:38:49.000,1649.0,1.4009371800000001,-4.474463760000001,8.5946752,0.0,1.0,D,-0.0007156446480000002,-5.890909200000007e-05,-0.00013219931999999997,both
1970-02-01 11:38:49.250,1649.0,1.413387,-4.467759979999999,8.626279,0.0,1.0,D,-0.0005001414799999999,-5.699163200000002e-05,-0.00034727620680000007,both
1970-02-01 11:38:49.500,1649.0,1.4220061400000001,-4.47111176,8.647827,0.0,1.0,D,-0.008597429688,-0.0032538501999999996,-0.0031157920467999997,both
1970-02-01 11:38:49.750,1649.0,1.41051394,-4.4624927,8.6411232,0.0,1.0,D,0.005888249379999999,-0.000272707724,0.0017861822,both
1970-02-01 11:38:50.000,1649.0,1.4114716399999998,-4.47206946,8.621011900000001,0.0,1.0,D,-0.0013553890320000006,0.0016449281000000004,0.0026382338999999997,both
1970-02-01 11:38:50.250,1649.0,1.4108332,-4.507982583333333,8.620772416666666,0.0,1.0,D,-0.00011194166666666698,-0.00037843521166666644,-0.0002741280166666668,both
1970-02-01 11:38:50.500,1649.0,1.39614876,-4.47254828,8.634898199999999,0.0,1.0,D,0.0029066274000000003,0.001219674506,0.00157206396,both
1970-02-01 11:38:50.750,1649.0,1.3932757,-4.45914078,8.6382498,0.0,1.0,D,-0.0002878878199999999,0.0033510555639999994,0.00604510932,both
1970-02-01 11:38:51.000,1649.0,1.39997948,-4.4691965,8.659797799999998,0.0,1.0,D,0.00312095854,0.002072738278,0.0015709988000000004,both
1970-02-01 11:38:51.250,1649.0,1.38752962,-4.4773368,8.626757399999999,0.0,1.0,D,0.00887418532,-0.00389194348,-0.00077338202,both
1970-02-01 11:38:51.500,1649.0,1.40189488,-4.43759294,8.6358558,0.0,1.0,D,0.0037609159200000008,-0.0006961502919999998,0.00157019962,both
1970-02-01 11:38:51.750,1649.0,1.38034708,-4.4524370399999995,8.6530938,0.0,1.0,D,-0.001781867940000001,0.0020709804599999995,-0.00034450649999999953,both
1970-02-01 11:38:52.000,1649.0,1.3832200799999999,-4.51995372,8.6152654,0.0,1.0,D,-0.0049785131,0.0022833943000000008,-0.00247434304,both
1970-02-01 11:38:52.250,1649.0,1.3846565800000001,-4.455309959999999,8.6238846,0.0,1.0,D,-0.0017846373399999997,0.001855690686,0.00136236668,both
1970-02-01 11:38:52.500,1649.0,1.3784317,-4.51085546,8.6253212,0.0,1.0,D,-0.00647307956,0.0007893609999999999,-0.0005539375399999999,both
1970-02-01 11:38:52.750,1649.0,1.374601,-4.4596196599999995,8.6578822,0.0,1.0,D,0.0035385955399999994,-0.0004904477399999999,-0.002682975,both
1970-02-01 11:38:53.000,1649.0,1.3865719200000002,-4.49792694,8.6205328,0.0,1.0,D,-0.005625395339999999,0.00419447868,-0.0003371562,both
1970-02-01 11:38:53.250,1649.0,1.39471224,-4.500321120000001,8.6602762,0.0,1.0,D,0.000553617972,0.0033426401,0.0007277353919999999,both
1970-02-01 11:38:53.500,1649.0,1.3631088,-4.49792688,8.6176596,0.0,1.0,D,-0.00029667623999999997,0.00377023708,0.0013654027140000001,both
1970-02-01 11:38:53.750,1649.0,1.33629382,-4.48451934,8.6167023,0.0,1.0,D,-0.00200109932,0.00440939568,-0.0003390203800000001,both
1970-02-01 11:38:54.000,1649.0,1.33868798,-4.5118134,8.625321199999998,0.0,1.0,D,-0.0015723302500000001,0.00100268009,-0.0011936287160000001,both
1970-02-01 11:38:54.250,1649.0,1.3616723,-4.505109559999999,8.641601699999999,0.0,1.0,D,-0.001359277296,0.00228099748,8.468852799999994e-05,both
1970-02-01 11:38:54.500,1649.0,1.34682828,-4.5209113,8.646868999999999,0.0,1.0,D,0.0020493558399999998,-0.00155416754,-0.00012815131999999998,both
1970-02-01 11:38:54.750,1649.0,1.35353204,-4.49313836,8.610477,0.0,1.0,D,-0.00072038507,-6.285059999999983e-05,0.0005110605880000001,both
1970-02-01 11:38:55.000,1649.0,1.3396456,-4.5256997000000005,8.6018581,0.0,1.0,D,0.000979564,-6.63659779999999e-05,0.001793212768,both
1970-02-01 11:38:55.250,1649.0,1.3611934399999999,-4.47590026,8.6066463,0.0,1.0,D,-0.0015800534199999997,0.004192348100000001,-0.0007608649999999997,both
1970-02-01 11:38:55.500,1649.0,1.3568838800000003,-4.50654606,8.6176596,0.0,1.0,D,-0.0011511778599999996,0.0033423737859999995,-0.00012405001999999995,both
1970-02-01 11:38:55.750,1649.0,1.33581492,-4.52043254,8.6377711,0.0,1.0,D,-0.0007209177199999997,0.001641306192,-0.0005536711600000001,both
1970-02-01 11:38:56.000,1649.0,1.34491292,-4.54293792,8.643995799999999,0.0,1.0,D,-0.00498256148,0.0039844085719999995,-0.001192350478,both
1970-02-01 11:38:56.250,1649.0,1.33342076,-4.53479774,8.604730899999998,0.0,1.0,D,-0.00477185204,0.0035563852600000003,8.78844000000001e-05,both
1970-02-01 11:38:56.500,1649.0,1.33342066,-4.5127711,8.6152652,0.0,1.0,D,-0.0024282702,0.002278068024,-0.00076432726,both
1970-02-01 11:38:56.750,1649.0,1.3449129199999998,-4.5395861,8.614307700000001,0.0,1.0,D,0.0016152070659999998,0.001422128088,-0.001612810344,both
1970-02-01 11:38:57.000,1649.0,1.3200132,-4.5434168,8.6004216,0.0,1.0,D,-0.0024327977000000002,-0.002412824,-0.002038916184,both
1970-02-01 11:38:57.250,1649.0,1.32671694,-4.5266573999999995,8.6009002,0.0,1.0,D,0.0024704013980000003,-0.003049426022,-0.0001237836992,both
1970-02-01 11:38:57.500,1649.0,1.3372514600000003,-4.52043246,8.6334615,0.0,1.0,D,0.00028692898600000006,-0.001256692454,-0.0003063167999999999,both
1970-02-01 11:38:57.750,1649.0,1.34060332,-4.53767078,8.6128714,0.0,1.0,D,0.0029760825399999997,0.0007922904439999999,0.0008056061799999999,both
1970-02-01 11:38:58.000,1649.0,1.3310265,-4.519953559999999,8.624842000000001,0.0,1.0,D,-0.00021971078000000005,0.0018575547999999998,0.000592553268,both
1970-02-01 11:38:58.250,1649.0,1.34922242,-4.5314458,8.610955800000001,0.0,1.0,D,0.00020639469999999895,-0.0002729740739999999,-0.003242398724,both
1970-02-01 11:38:58.500,1649.0,1.3056480000000001,-4.4567467999999995,8.579352,0.0,1.0,D,0.00830240474,-0.0109256184,0.0027230821420000002,both
1970-02-01 11:38:58.750,1649.0,1.37843172,-4.45147942,8.588929000000002,0.0,1.0,D,0.0114981982,-0.0053862433,-0.00025965782000000024,both
1970-02-01 11:38:59.000,1649.0,1.32049202,-4.54485332,8.645911199999999,0.0,1.0,D,-6.657792000000452e-06,-0.001338238408,0.00016644755999999992,both
1970-02-01 11:38:59.250,1649.0,1.3501800800000001,-4.52809396,8.6186174,0.0,1.0,D,0.004041346962,-0.0026165557,-0.000472711144,both
1970-02-01 11:38:59.500,1649.0,1.3540108400000002,-4.546289799999999,8.6114344,0.0,1.0,D,-0.0044823662999999994,0.0012170647400000002,-4.554012000000003e-05,both
1970-02-01 11:38:59.750,1649.0,1.3789105400000001,-4.585075859999999,8.5937174,0.0,1.0,D,0.01234881128,-0.0049614692399999995,0.0042155176,both
1970-02-01 11:39:00.000,1649.0,1.3439552,-4.51899594,8.5731272,0.0,1.0,D,-7.829460000000412e-06,0.0007913849740000001,0.008476149340000001,both
1970-02-01 11:39:00.250,1649.0,1.35736274,-4.5443745,8.5487066,0.0,1.0,D,0.006383863179999999,-0.0034695662200000003,0.0008061389079999998,both
1970-02-01 11:39:00.500,1649.0,1.36502418,-4.524742000000001,8.6090404,0.0,1.0,D,-0.0006475210000000002,-0.00261783406,0.003363252948,both
1970-02-01 11:39:00.750,1649.0,1.34203986,-4.54054372,8.588450600000002,0.0,1.0,D,0.0014825817600000002,-0.0011267834800000002,0.001233043608,both
1970-02-01 11:39:01.000,1649.0,1.3516166200000002,-4.5295305,8.6071253,0.0,1.0,D,-0.0010755442600000008,-6.269076000000005e-05,0.0016603211880000003,both
1970-02-01 11:39:01.250,1649.0,1.350659,-4.55012054,8.6253213,0.0,1.0,D,0.002544117940000001,-0.0004905543,-0.0008945557600000001,both
1970-02-01 11:39:01.500,1649.0,1.3540108200000003,-4.5352765,8.616223,0.0,1.0,D,0.0027567445600000006,0.001000549512,0.00038408111999999994,both
1970-02-01 11:39:01.750,1649.0,1.34682818,-4.5568243,8.6325039,0.0,1.0,D,-0.004701810900000001,0.0020647488,0.0012375710040000002,both
1970-02-01 11:39:02.000,1649.0,1.32959,-4.5726260000000005,8.604731000000001,0.0,1.0,D,0.0059508335400000004,-0.0047529436,-4.074646000000008e-05,both
1970-02-01 11:39:02.250,1649.0,1.3583203799999999,-4.5601762,8.584619399999998,0.0,1.0,D,-0.00427463976,0.0027044400200000006,-0.001959021212,both
1970-02-01 11:39:02.500,1649.0,1.33964566,-4.56448564,8.552058599999999,0.0,1.0,D,0.0021169466,0.0020652813,-0.006220079000000001,both
1970-02-01 11:39:02.750,1649.0,1.34443402,-4.55538786,8.6047308,0.0,1.0,D,0.005313166360000001,-0.0034736674600000005,0.00017129443999999993,both
1970-02-01 11:39:03.000,1649.0,1.35161662,-4.532403459999999,8.622447600000001,0.0,1.0,D,0.0087221186,-0.0007038734360000001,0.002301770052,both
1970-02-01 11:39:03.250,1649.0,1.35161662,-4.5553877599999995,8.598984999999999,0.0,1.0,D,-0.003210600259999999,-0.0004922585760000001,0.006351053256,both
1970-02-01 11:39:03.500,1649.0,1.3501800999999998,-4.5520359599999995,8.575043099999998,0.0,1.0,D,0.004245078724,-0.00283679924,0.00145168914,both
1970-02-01 11:39:03.750,1649.0,1.3578416,-4.571189599999999,8.6095194,0.0,1.0,D,0.00041076588000000006,-0.0015579492400000002,0.0018773687060000001,both
1970-02-01 11:39:04.000,1649.0,1.3386879600000001,-4.52091126,8.6009002,0.0,1.0,D,0.004033623879999999,-0.0009179916200000001,0.0005984124040000003,both
1970-02-01 11:39:04.250,1649.0,1.37316452,-4.5352765,8.592281100000001,0.0,1.0,D,0.0025425196800000003,-0.0004916726200000002,0.000811198904,both
1970-02-01 11:39:04.500,1649.0,1.35688394,-4.5448534,8.6143078,0.0,1.0,D,0.000626109228,0.001639708304,0.00017097493999999983,both
1970-02-01 11:39:04.750,1649.0,1.34251872,-4.53958594,8.5922812,0.0,1.0,D,0.00531327256,-0.0004908207400000006,0.0035798214,both
1970-02-01 11:39:05.000,1649.0,1.3525743000000001,-4.5376706,8.607603999999998,0.0,1.0,D,0.0053132725200000005,0.0005744438199999999,-0.0025987126540000004,both
1970-02-01 11:39:05.250,1649.0,1.32767462,-4.54198018,8.6219692,0.0,1.0,D,-0.00917432336,0.0059007659199999994,-0.0068597701999999995,both
1970-02-01 11:39:05.500,1649.0,1.3406033000000002,-4.5644858,8.629152,0.0,1.0,D,0.011272148467999999,0.0005693306320000001,-3.69647879999999e-05,both
1970-02-01 11:39:05.750,1649.0,1.32049202,-4.56640106,8.6368132,0.0,1.0,D,-0.008543420900000001,0.00312468672,0.00039041939999999995,both
1970-02-01 11:39:06.000,1649.0,1.30612678,-4.56927426,8.581268,0.0,1.0,D,-0.0015080414200000002,0.001423779106,0.004861014719999999,both
1970-02-01 11:39:06.250,1649.0,1.30038068,-4.55443016,8.572169599999999,0.0,1.0,D,0.0061649517860000004,-0.0021957762799999997,0.004219512140000001,both
1970-02-01 11:39:06.500,1649.0,1.32719578,-4.562570459999999,8.5975482,0.0,1.0,D,0.0010505102999999998,-0.003048839900000001,0.00336815314,both
1970-02-01 11:39:06.750,1649.0,1.32097088,-4.5424592,8.604251999999999,0.0,1.0,D,0.004670651778,-0.001771801096,0.0018780612300000003,both
1970-02-01 11:39:07.000,1649.0,1.3118728800000001,-4.57932982,8.5836622,0.0,1.0,D,-0.0017199226400000003,0.00014642066000000015,0.0018773155700000002,both
1970-02-01 11:39:07.250,1649.0,1.32623812,-4.55347244,8.5803102,0.0,1.0,D,-0.0010767159800000002,0.00014940330399999997,0.00123517408,both
1970-02-01 11:39:07.500,1649.0,1.3113940400000001,-4.54676876,8.6248424,0.0,1.0,D,0.00595402915,-0.002620284196,0.0001699097,both
1970-02-01 11:39:07.750,1649.0,1.30995748,-4.57597802,8.60521,0.0,1.0,D,-0.0023654198200000003,0.00205915616,0.0003909519720000001,both
1970-02-01 11:39:08.000,1649.0,1.3209708800000002,-4.55299368,8.5965906,0.0,1.0,D,0.0031739554,0.0007808388259999999,0.000817057832,both
1970-02-01 11:39:08.250,1649.0,1.3123517,-4.55538774,8.641122900000001,0.0,1.0,D,-0.00577213538,-0.00134819863,-0.0032324384639999997,both
1970-02-01 11:39:08.500,1649.0,1.3429975200000002,-4.58938546,8.6143078,0.0,1.0,D,0.00466798872,-0.00326530168,0.002732669308,both
1970-02-01 11:39:08.750,1649.0,1.30421144,-4.5817239999999995,8.5827044,0.0,1.0,D,0.0021062409400000003,-0.00326913674,0.0031626102800000008,both
1970-02-01 11:39:09.000,1649.0,1.3123516800000001,-4.573104900000001,8.6066462,0.0,1.0,D,0.007216101400000001,-0.001354217424,0.000608532352,both
1970-02-01 11:39:09.250,1649.0,1.31522476,-4.59369506,8.5879714,0.0,1.0,D,0.0010356500919999998,-0.0015686551119999995,0.000396970786,both
1970-02-01 11:39:09.500,1649.0,1.31522476,-4.586512480000001,8.5879716,0.0,1.0,D,0.0001805623400000003,0.0022642195440000005,0.0016775250600000007,both
1970-02-01 11:39:09.750,1649.0,1.2984654399999997,-4.59944116,8.6066464,0.0,1.0,D,0.0029487053339999998,-0.000506639868,0.00317006711,both
1970-02-01 11:39:10.000,1649.0,1.302296,-4.5822029,8.5941966,0.0,1.0,D,0.006990531499999999,-0.0015765913199999998,0.0006181196639999998,both
1970-02-01 11:39:10.250,1649.0,1.3200131800000001,-4.568795339999999,8.616223,0.0,1.0,D,0.0042208437800000005,-0.0011504854999999999,0.00040506668400000034,both
1970-02-01 11:39:10.500,1649.0,1.31426712,-4.57885106,8.622448200000001,0.0,1.0,D,0.0003874898399999995,0.000768055682,-0.00044820996999999995,both
1970-02-01 11:39:10.750,1649.0,1.3027749200000003,-4.57741446,8.6277154,0.0,1.0,D,0.0008135955999999993,-0.00029720870600000003,-0.00023515706,both
1970-02-01 11:39:11.000,1649.0,1.32240734,-4.628171540000001,8.5688176,0.0,1.0,D,-0.0060109142,0.0033195771720000004,0.00190048482,both
1970-02-01 11:39:11.250,1649.0,1.28410016,-4.57310482,8.5659448,0.0,1.0,D,0.012736034939999998,-0.003925499508,0.0044583979,both
1970-02-01 11:39:11.500,1649.0,1.2965499400000002,-4.588427780000001,8.5946754,0.0,1.0,D,-4.7936800000000256e-05,0.0003349191119999999,0.00424598432,both
1970-02-01 11:39:11.750,1649.0,1.28697318,-4.58507594,8.598506,0.0,1.0,D,-0.003244262819999999,0.00374333916,0.004672516160000001,both
1970-02-01 11:39:12.000,1649.0,1.2750021399999998,-4.599441100000001,8.5736062,0.0,1.0,D,0.0031447669400000004,0.0011847870879999997,-0.00193009938,both
1970-02-01 11:39:12.250,1649.0,1.25680626,-4.6114121599999995,8.580788799999999,0.0,1.0,D,0.00037124443999999955,0.00011664644799999997,-0.00043569308,both
1970-02-01 11:39:12.500,1649.0,1.29271922,-4.58938554,8.5788734,0.0,1.0,D,0.003781102664,-0.002226189632,0.00041571942600000003,both
1970-02-01 11:39:12.750,1649.0,1.2788328800000002,-4.60806026,8.552058200000001,0.0,1.0,D,0.001441569224,0.0005464806400000001,0.0008386294339999999,both
1970-02-01 11:39:13.000,1649.0,1.29032506,-4.60949674,8.579352,0.0,1.0,D,0.001228516184,0.002250903688,0.000199470772,both
1970-02-01 11:39:13.250,1649.0,1.25441204,-4.6051872000000005,8.598985,0.0,1.0,D,-0.00048096692,0.002460228268,-9.85367600000002e-06,both
1970-02-01 11:39:13.500,1649.0,1.2831424000000002,-4.60566606,8.587013899999999,0.0,1.0,D,-0.0009174059200000003,0.00226113034,-0.0007961786200000002,both
1970-02-01 11:39:13.750,1649.0,1.272608,-4.598004640000001,8.623884499999999,0.0,1.0,D,0.0015978964999999999,-0.00023968446000000016,0.0018109493999999998,both
1970-02-01 11:39:14.000,1649.0,1.2793117400000003,-4.62338316,8.5989848,0.0,1.0,D,-0.00862864182,0.00402137334,-0.0015978966999999997,both
1970-02-01 11:39:14.250,1649.0,1.2702138,-4.627692659999999,8.585098200000001,0.0,1.0,D,-0.00479368992,0.00082557992,0.00351537264,both
1970-02-01 11:39:14.500,1649.0,1.2601581400000001,-4.6300868799999995,8.5922812,0.0,1.0,D,0.0033023196599999997,-0.0030093720800000003,-0.00053263224,both
1970-02-01 11:39:14.750,1649.0,1.2548909000000001,-4.656901939999999,8.6387288,0.0,1.0,D,-0.00138484382,-0.000878843126,0.00053263222,both
1970-02-01 11:39:15.000,1649.0,1.2697349199999999,-4.62481964,8.5779158,0.0,1.0,D,0.004154531179999999,-0.0015180017660000001,0.00181094958,both
1970-02-01 11:39:15.250,1649.0,1.2510602,-4.62434076,8.588929000000002,0.0,1.0,D,0.0011717907800000004,-0.001251685588,0.00039947416199999987,both
1970-02-01 11:39:15.500,1649.0,1.24914484,-4.66504224,8.5554102,0.0,1.0,D,0.002396845319999999,-0.00033289514,-0.00043276354999999993,both
1970-02-01 11:39:15.750,1649.0,1.27069262,-4.618115919999999,8.605688599999999,0.0,1.0,D,-0.006977482040000001,-0.0018242652679999998,0.0027630297,both
1970-02-01 11:39:16.000,1649.0,1.24339872,-4.6224255,8.574564200000001,0.0,1.0,D,0.0045273738,-0.00246342392,-0.00128497526,both
1970-02-01 11:39:16.250,1649.0,1.23717382,-4.627213899999999,8.597548399999999,0.0,1.0,D,0.00537958502,-0.0022503710959999998,0.001058606524,both
1970-02-01 11:39:16.500,1649.0,1.2505813400000003,-4.651155899999999,8.6023368,0.0,1.0,D,-0.0005858954400000001,-0.0013981594,-0.0017110809999999997,both
1970-02-01 11:39:16.750,1649.0,1.2472295,-4.64971934,8.569775799999999,0.0,1.0,D,0.004101267699999999,-0.000332895116,-0.00064581651,both
1970-02-01 11:39:17.000,1649.0,1.2687773000000002,-4.6621692,8.5501428,0.0,1.0,D,-0.002073590468,0.0009481385899999999,-0.0004365985999999999,both
1970-02-01 11:39:17.250,1649.0,1.2529755599999999,-4.63535414,8.6109562,0.0,1.0,D,0.001976864353999999,-0.0009675263999999999,-1.304946000000003e-05,both
1970-02-01 11:39:17.500,1649.0,1.26351002,-4.6281715000000005,8.5597196,0.0,1.0,D,0.0030423419439999998,-0.0013935257200000002,-0.001504632712,both
1970-02-01 11:39:17.750,1649.0,1.2582427999999999,-4.65690196,8.5707332,0.0,1.0,D,-0.001005343262,9.800428000000016e-05,0.00211694656,both
1970-02-01 11:39:18.000,1649.0,1.2477083,-4.64062146,8.5688176,0.0,1.0,D,0.001978089404,0.0005246426839999998,0.0001987783380000001,both
1970-02-01 11:39:18.250,1649.0,1.24052566,-4.6545077599999995,8.609040400000001,0.0,1.0,D,0.0007025417060000005,-0.0007515440399999999,-0.0006562028600000002,both
1970-02-01 11:39:18.500,1649.0,1.2481871199999997,-4.66360576,8.5597198,0.0,1.0,D,0.0030461240000000003,0.00073982624,-0.0012953615000000003,both
1970-02-01 11:39:18.750,1649.0,1.2429199199999998,-4.65833844,8.596590799999998,0.0,1.0,D,-0.006116481892,0.00031265509400000023,0.008932508680000001,both
1970-02-01 11:39:19.000,1649.0,1.24531412,-4.6583385,8.556846799999999,0.0,1.0,D,0.0011273159199999994,0.00180402532,0.0019017633399999998,both
1970-02-01 11:39:19.250,1649.0,1.2223297599999998,-4.646846300000001,8.5975482,0.0,1.0,D,0.00773025122,-0.00394968106,-0.003422854354,both
1970-02-01 11:39:19.500,1649.0,1.2323854399999998,-4.6904207200000005,8.561156399999998,0.0,1.0,D,-0.00036618499999999945,-0.00011504854999999994,0.0023299995,both
1970-02-01 11:39:19.750,1649.0,1.2280758600000001,-4.6554654,8.5927599,0.0,1.0,D,0.00155400802,-0.0022435000900000003,0.001049125708,both
1970-02-01 11:39:20.000,1649.0,1.25680628,-4.6138062,8.5515796,0.0,1.0,D,0.005390770832,-0.00224211518,0.004030161388,both
1970-02-01 11:39:20.250,1649.0,1.2132317800000003,-4.67366136,8.5649871,0.0,1.0,D,0.0026190591999999996,-0.00245665944,0.0004101800200000002,both
1970-02-01 11:39:20.500,1649.0,1.2410045399999998,-4.6554654399999995,8.565945,0.0,1.0,D,0.0021899172939999997,-0.00309805535,-0.000865260992,both
1970-02-01 11:39:20.750,1649.0,1.2491448200000002,-4.6569020000000005,8.549185399999999,0.0,1.0,D,-0.006119145087999998,-0.0007544736199999999,-0.0017174725120000002,both
1970-02-01 11:39:21.000,1649.0,1.2175413800000001,-4.65450774,8.529552599999999,0.0,1.0,D,0.01241645606,-0.005441637080000001,-0.0008652611719999998,both
1970-02-01 11:39:21.250,1649.0,1.2510602000000002,-4.6401425000000005,8.5716908,0.0,1.0,D,0.00282907632,-0.0030980554100000003,0.0042480081799999994,both
1970-02-01 11:39:21.500,1649.0,1.25584862,-4.649240539999999,8.5817464,0.0,1.0,D,6.25839139999999e-05,-0.00032597090000000006,-0.0019337213199999998,both
1970-02-01 11:39:21.750,1649.0,1.23765268,-4.6396637,8.569296600000001,0.0,1.0,D,0.0034714304940000004,-0.0028826055,0.00062291336,both
1970-02-01 11:39:22.000,1649.0,1.2654254200000001,-4.659296100000001,8.529553,0.0,1.0,D,0.0007028083000000004,-0.00075122436,-0.00363920952,both
1970-02-01 11:39:22.250,1649.0,1.24052574,-4.60518722,8.5908448,0.0,1.0,D,0.0038988678039999997,-0.00224238166,0.0018998990399999999,both
1970-02-01 11:39:22.500,1649.0,1.25393322,-4.6645634000000005,8.5563678,0.0,1.0,D,0.0002772882800000004,0.00116662435,0.0004082092679999998,both
1970-02-01 11:39:22.750,1649.0,1.26590422,-4.627692659999999,8.5635504,0.0,1.0,D,-0.0020660802,0.0005275722100000002,-0.00619664324,both
1970-02-01 11:39:23.000,1649.0,1.27404454,-4.65067704,8.5410452,0.0,1.0,D,-0.0005762013880000007,-0.00032570468,0.00552275684,both
1970-02-01 11:39:23.250,1649.0,1.2333431400000001,-4.67174598,8.572648399999999,0.0,1.0,D,0.0017651432099999999,-0.00054035542,0.0008378305200000002,both
1970-02-01 11:39:23.500,1649.0,1.248666,-4.64301556,8.542960599999999,0.0,1.0,D,0.00048655958,9.859016999999996e-05,0.00211641412,both
1970-02-01 11:39:23.750,1649.0,1.24914484,-4.654507740000001,8.574564,0.0,1.0,D,0.0017638114939999994,-0.00011531488,-0.00022610227999999983,both
1970-02-01 11:39:24.000,1649.0,1.2644677200000003,-4.647803999999999,8.5692968,0.0,1.0,D,0.001550758734,0.00031079090999999997,-0.00022610236399999995,both
1970-02-01 11:39:24.250,1649.0,1.2534544,-4.6803651,8.564029399999999,0.0,1.0,D,0.002191781496,-0.00501419956,-1.4913715999999993e-05,both
1970-02-01 11:39:24.500,1649.0,1.25728512,-4.65546546,8.566423799999999,0.0,1.0,D,0.0034700988599999996,-0.0030967237,-0.000441019496,both
1970-02-01 11:39:24.750,1649.0,1.2548909199999998,-4.65785964,8.5645082,0.0,1.0,D,-0.0026067020000000002,0.0022661369520000003,-0.000875594086,both
1970-02-01 11:39:25.000,1649.0,1.2692561000000002,-4.666957600000001,8.5649874,0.0,1.0,D,0.00037284250000000057,-0.00034621102,-0.0007123955800000001,both
1970-02-01 11:39:25.250,1649.0,1.2615946599999999,-4.64971934,8.5458338,0.0,1.0,D,-0.007510114500000001,0.003062635248,-0.00199071294,both
1970-02-01 11:39:25.500,1649.0,1.27548104,-4.673661300000001,8.565945,0.0,1.0,D,0.00953411648,-0.0009853696,-0.00113850136,both
1970-02-01 11:39:25.750,1649.0,1.27643868,-4.6449309,8.548227800000001,0.0,1.0,D,-0.00516653244,-0.001198422484,0.00120508032,both
1970-02-01 11:39:26.000,1649.0,1.26973494,-4.66935182,8.5669026,0.0,1.0,D,-0.0009054747200000001,0.00114515926,0.0003528688400000001,both
1970-02-01 11:39:26.250,1649.0,1.25489088,-4.64205786,8.563550600000001,0.0,1.0,D,0.00527305884,-0.00119842256,-0.0019907129,both
1970-02-01 11:39:26.500,1649.0,1.2443564400000002,-4.64445214,8.553495,0.0,1.0,D,-0.0001331578600000001,-0.0008255798779999999,-7.323691999999975e-05,both
1970-02-01 11:39:26.750,1649.0,1.26925612,-4.6540288599999995,8.583661800000002,0.0,1.0,D,0.00133823844,-0.0008388958799999998,0.0006724481828000003,both
1970-02-01 11:39:27.000,1649.0,1.25872162,-4.646367440000001,8.568339,0.0,1.0,D,0.00346876732,-0.0012650015799999998,0.00131160684,both
1970-02-01 11:39:27.250,1649.0,1.28122708,-4.6487617,8.579352400000001,0.0,1.0,D,-0.0033489248400000006,0.0038482678819999998,0.00109855386,both
1970-02-01 11:39:27.500,1649.0,1.26303118,-4.62529846,8.5769582,0.0,1.0,D,0.00730371944,-0.00467384774,-0.003588609477199999,both
1970-02-01 11:39:27.750,1649.0,1.27452332,-4.671267139999999,8.5549314,0.0,1.0,D,-0.00846219436,0.0034221621559999997,0.00024634242000000015,both
1970-02-01 11:39:28.000,1649.0,1.28601556,-4.63535406,8.5439178,0.0,1.0,D,0.0055992969,-0.005526059357999999,-0.01104546026,both
1970-02-01 11:39:28.250,1649.0,1.2793117600000001,-4.64540982,8.5764796,0.0,1.0,D,0.007090666388,-0.004886900618,-0.012536830359999997,both
1970-02-01 11:39:28.500,1649.0,1.2912826799999997,-4.607581440000001,8.576479600000003,0.0,1.0,D,-0.005695276019999999,0.00555045394,0.00983702476,both
1970-02-01 11:39:28.750,1649.0,1.27308686,-4.6334388,8.584619799999999,0.0,1.0,D,0.00026604986000000017,0.00213825208,0.00771144946,both
1970-02-01 11:39:29.000,1649.0,1.2702137800000002,-4.60806024,8.5549316,0.0,1.0,D,0.000906114099999998,0.00277810322,-0.0040075249,both
1970-02-01 11:39:29.250,1649.0,1.2524967,-4.6434942800000005,8.5606776,0.0,1.0,D,-0.005694903200000005,0.0025678200800000003,0.00280590664,both
1970-02-01 11:39:29.500,1649.0,1.28840972,-4.652113560000001,8.6004216,0.0,1.0,D,0.006875216639999999,-0.004036819319999999,0.0064278055579999995,both
1970-02-01 11:39:29.750,1649.0,1.2678195600000002,-4.611891,8.5932384,0.0,1.0,D,0.0023979104,-0.0008434231600000002,0.00174463676,both
1970-02-01 11:39:30.000,1649.0,1.2639888799999999,-4.640621400000001,8.5530158,0.0,1.0,D,-0.00271535916,0.00043489411,0.0006793723800000004,both
1970-02-01 11:39:30.250,1649.0,1.26350996,-4.6439732000000005,8.5582836,0.0,1.0,D,-0.00143768082,0.0021386780399999996,0.0028107535399999996,both
1970-02-01 11:39:30.500,1649.0,1.2611158000000002,-4.65402894,8.5692966,0.0,1.0,D,0.0021840585600000004,-0.0010572749400000001,0.0038762310584,both
1970-02-01 11:39:30.750,1649.0,1.27356564,-4.62625624,8.5726482,0.0,1.0,D,-0.0010122143200000002,-0.00127064742,-0.0014496118799999993,both
1970-02-01 11:39:31.000,1649.0,1.2884097,-4.640621380000001,8.5697756,0.0,1.0,D,0.0009049421799999995,0.00043356272000000023,0.0021726069,both
1970-02-01 11:39:31.250,1649.0,1.2697349999999998,-4.64349438,8.541524,0.0,1.0,D,-0.00015957670000000022,-0.001483274226,0.00025417214,both
1970-02-01 11:39:31.500,1649.0,1.2706926,-4.649719299999999,8.5525376,0.0,1.0,D,-0.0007976169199999997,0.0008612662599999999,-0.00017337178000000015,both
1970-02-01 11:39:31.750,1649.0,1.25728514,-4.6334387800000005,8.5525372,0.0,1.0,D,-0.0012240953999999998,-0.00126958214,-0.0012381568800000002,both
1970-02-01 11:39:32.000,1649.0,1.2855366400000001,-4.65833848,8.581267599999999,0.0,1.0,D,-0.005912750440000001,-0.004253600947999999,-0.00634950874,both
1970-02-01 11:39:32.250,1649.0,1.2860155,-4.61572166,8.5520587,0.0,1.0,D,-0.007191067319999999,0.010873153852,-0.0003840278199999998,both
1970-02-01 11:39:32.500,1649.0,1.26590424,-4.74644484,8.519976199999999,0.0,1.0,D,0.0032469260000000015,-0.0008460863200000001,0.00600968922,both
1970-02-01 11:39:32.750,1649.0,1.2553697400000001,-4.6310445,8.5669026,0.0,1.0,D,0.0023947143999999997,-0.0002069278399999996,-0.0003818972799999999,both
1970-02-01 11:39:33.000,1649.0,1.2582427800000002,-4.6650422,8.5740853,0.0,1.0,D,5.241107999999972e-05,-0.00404081444,0.00451661468,both
1970-02-01 11:39:33.250,1649.0,1.2443564,-4.69425144,8.562593,0.0,1.0,D,-0.0003733750279999996,7.456859999999902e-06,0.0004681839486000001,both
1970-02-01 11:39:33.500,1649.0,1.29224042,-4.6482828,8.566902599999999,0.0,1.0,D,-0.0029276131,0.0027790618400000003,-0.0014523281520000002,both
1970-02-01 11:39:33.750,1649.0,1.2864943199999999,-4.67940744,8.5783948,0.0,1.0,D,-0.01592224154,0.00725445066,-0.0187116356,both
1970-02-01 11:39:34.000,1649.0,1.29176158,-4.6923361,8.511357,0.0,1.0,D,-0.0372295534,0.013218333500000002,-0.029574670199999997,both
1970-02-01 11:39:34.250,1649.0,1.22472398,-4.7986385,8.4447984,0.0,1.0,D,-0.008683502640000002,0.005546032760000001,-0.00826538678,both
1970-02-01 11:39:34.500,1649.0,1.3104363600000002,-4.7737389,8.4610788,0.0,1.0,D,0.00452561653,-0.00361540102,-0.012526284440000002,both
1970-02-01 11:39:34.750,1649.0,1.25441206,-4.80677876,8.471134600000001,0.0,1.0,D,-0.00186660996,0.0074627101399999994,-0.00783848228,both
1970-02-01 11:39:35.000,1649.0,1.29511344,-4.7766119400000004,8.523806800000001,0.0,1.0,D,0.0009030780199999998,-0.004894357487999999,0.009418801699999998,both
1970-02-01 11:39:35.250,1649.0,1.2951134999999998,-4.808215380000001,8.4706558,0.0,1.0,D,-0.00250736622,-0.00233878808,-0.00165781778,both
1970-02-01 11:39:35.500,1649.0,1.2606369599999998,-4.75171224,8.492203399999998,0.0,1.0,D,0.0156021292,-0.00383015815,-0.004001399480000001,both
1970-02-01 11:39:35.750,1649.0,1.27500222,-4.7560218,8.508484,0.0,1.0,D,4.862923399999927e-05,0.0029868949119999997,0.00899567898,both
1970-02-01 11:39:36.000,1649.0,1.29990184,-4.74452962,8.5305104,0.0,1.0,D,0.00857058508,0.00043010041999999983,0.0008998820800000002,both
1970-02-01 11:39:36.250,1649.0,1.2577639400000002,-4.72872796,8.5070476,0.0,1.0,D,0.0011137338199999998,-0.0004221109399999999,-0.0008045409633999998,both
1970-02-01 11:39:36.500,1649.0,1.29080386,-4.7474027,8.5376934,0.0,1.0,D,-0.006130063932,-0.0025526399199999996,0.0002607234166000002,both
1970-02-01 11:39:36.750,1649.0,1.3061268199999998,-4.7541065,8.512315,0.0,1.0,D,0.0019665844000000014,-0.0025521072400000013,0.0057992463200000005,both
1970-02-01 11:39:37.000,1649.0,1.2577638800000002,-4.77948498,8.470655800000001,0.0,1.0,D,-0.00953731272,0.0019228023860000001,0.0030282803600000007,both
1970-02-01 11:39:37.250,1649.0,1.2999018599999999,-4.78714636,8.5103996,0.0,1.0,D,-0.005063788399999998,0.0006440589260000001,-0.0022973492400000005,both
1970-02-01 11:39:37.500,1649.0,1.26255236,-4.79672316,8.4773592,0.0,1.0,D,0.0011124021399999998,-0.0010620687,0.00580142994,both
1970-02-01 11:39:37.750,1649.0,1.2903251,-4.77278128,8.4869362,0.0,1.0,D,0.0004732437999999999,-0.00020985716000000023,0.00409700676,both
1970-02-01 11:39:38.000,1649.0,1.2745233799999998,-4.76033126,8.453417199999999,0.0,1.0,D,0.00174916406,-0.00042504048400000003,0.004526308622399999,both
1970-02-01 11:39:38.250,1649.0,1.3180978399999999,-4.784752139999999,8.508005399999998,0.0,1.0,D,0.0038796929199999995,-0.002555569424,-0.0010130663999999997,both
1970-02-01 11:39:38.500,1649.0,1.27069264,-4.75841604,8.4615576,0.0,1.0,D,0.0023896015999999996,-0.0006370281479999996,0.0004765993000000003,both
1970-02-01 11:39:38.750,1649.0,1.29607122,-4.733995179999999,8.512793599999998,0.0,1.0,D,0.010698982746000002,-0.005110872399999999,-0.0001629854739999998,both
1970-02-01 11:39:39.000,1649.0,1.32097086,-4.7876253,8.457727,0.0,1.0,D,0.0156006374,-0.004683488220000001,-0.0014430605200000002,both
1970-02-01 11:39:39.250,1649.0,1.32464195,-4.671586333333333,8.544556666666667,0.0,1.0,D,0.005126496083333332,-0.001806421916666667,0.003775563433333333,both
1970-02-01 11:39:39.500,1649.0,1.29654998,-4.7043071,8.5578046,0.0,1.0,D,0.015173413520000002,-0.00383218232,0.00835875728,both
1970-02-01 11:39:39.750,1649.0,1.27500222,-4.6875477,8.528595200000002,0.0,1.0,D,-0.004641889819999999,-0.0012767194800000002,0.0036732981019999998,both
1970-02-01 11:39:40.000,1649.0,1.3200131600000002,-4.693772600000001,8.5180608,0.0,1.0,D,-0.0042151451199999995,0.0019196066799999998,-0.0037842987200000003,both
1970-02-01 11:39:40.250,1649.0,1.30181728,-4.68275932,8.5171032,0.0,1.0,D,0.0019643476,-0.00361896966,0.00196701084,both
1970-02-01 11:39:40.500,1649.0,1.28410016,-4.7052647400000005,8.515187799999998,0.0,1.0,D,-0.0035754537399999993,-0.0010626548199999999,-0.0016544089607999995,both
1970-02-01 11:39:40.750,1649.0,1.3056480000000001,-4.71148972,8.519976,0.0,1.0,D,-0.002937998659999999,0.0017057544199999997,-0.0031438616600000004,both
1970-02-01 11:39:41.000,1649.0,1.3089998399999998,-4.691857219999999,8.5319471,0.0,1.0,D,0.019645605987999998,0.0038362836999999996,-0.001865544360000001,both
1970-02-01 11:39:41.250,1649.0,1.28649442,-4.64205788,8.5276376,0.0,1.0,D,-0.004856008051999999,-0.00021252023,-0.0035689022800000003,both
1970-02-01 11:39:41.500,1649.0,1.33198416,-4.68467468,8.534341399999999,0.0,1.0,D,0.0011094729399999993,-0.0053257893320000005,-0.0010122675600000002,both
1970-02-01 11:39:41.750,1649.0,1.3271957799999998,-4.6545077,8.562593,0.0,1.0,D,-0.0008073645000000011,0.0029839123099999997,0.0021826734800000002,both
1970-02-01 11:39:42.000,1649.0,1.3185767199999998,-4.7081378,8.5463122,0.0,1.0,D,0.003240800799999999,0.00042743733999999996,0.006443518200000001,both
1970-02-01 11:39:42.250,1649.0,1.3123517800000002,-4.664084539999999,8.5405662,0.0,1.0,D,0.009416617799999999,0.0002121474,0.00346413354,both
1970-02-01 11:39:42.500,1649.0,1.3022960399999999,-4.6645634000000005,8.579831200000001,0.0,1.0,D,0.0015318503,-0.0021329257000000006,0.0060230051,both
1970-02-01 11:39:42.750,1649.0,1.3032537400000002,-4.649240520000001,8.550143,0.0,1.0,D,4.1119339999999994e-05,0.00106340022,0.007939629,both
1970-02-01 11:39:43.000,1649.0,1.2955922999999998,-4.6908996,8.5127934,0.0,1.0,D,-0.0033667680599999998,0.0010641991699999998,0.00112065818,both
1970-02-01 11:39:43.250,1649.0,1.3080422200000001,-4.659296159999999,8.556847200000002,0.0,1.0,D,0.00025497120000000033,-0.0019186477920000004,0.0017600298300000001,both
1970-02-01 11:39:43.500,1649.0,1.29559228,-4.6727037,8.517582,0.0,1.0,D,-0.0023023030479999993,-0.0017060209959999996,0.00367835812,both
1970-02-01 11:39:43.750,1649.0,1.30373256,-4.6669576,8.550622,0.0,1.0,D,0.000254332046,0.0012767194680000002,-0.00143491122,both
1970-02-01 11:39:44.000,1649.0,1.30516908,-4.640621400000001,8.544875600000001,0.0,1.0,D,0.0006836334600000002,0.00021385181999999999,0.0021829932000000003,both
1970-02-01 11:39:44.250,1649.0,1.27883286,-4.66216916,8.5587622,0.0,1.0,D,0.0021750036,-0.0031949943,0.0006916229599999998,both
1970-02-01 11:39:44.500,1649.0,1.29080388,-4.6406214,8.5544526,0.0,1.0,D,0.0025979135760000006,-0.0008537562520000003,0.0011217767000000001,both
1970-02-01 11:39:44.750,1649.0,1.2841001,-4.686589960000001,8.5511004,0.0,1.0,D,-0.00358141896,0.002341451228,5.752432000000005e-05,both
1970-02-01 11:39:45.000,1649.0,1.2970287600000001,-4.6659999,8.528116700000002,0.0,1.0,D,0.007284118115999999,-0.0025590847399999997,-0.0014335263360000002,both
1970-02-01 11:39:45.250,1649.0,1.2955922999999998,-4.64828284,8.5132726,0.0,1.0,D,0.00089242528,0.0006364955000000003,0.00176247996,both
1970-02-01 11:39:45.500,1649.0,1.2864943400000002,-4.65929614,8.5185396,0.0,1.0,D,0.002170423,0.00084933534,0.00154974674,both
1970-02-01 11:39:45.750,1649.0,1.2841000800000002,-4.6616903999999995,8.529552800000001,0.0,1.0,D,0.001530784932,0.000849015744,-0.0005803028,both
1970-02-01 11:39:46.000,1649.0,1.2970288800000003,-4.660253880000001,8.5338624,0.0,1.0,D,0.0036620063240000006,-0.001707032956,0.00261458498,both
1970-02-01 11:39:46.250,1649.0,1.2965500200000002,-4.656423139999999,8.56786,0.0,1.0,D,0.0008950884200000002,-0.00042637205,-0.0003717773064,both
1970-02-01 11:39:46.500,1649.0,1.28314252,-4.6645634000000005,8.5520582,0.0,1.0,D,-0.0010223876200000002,0.0002127866,0.0026109630167999998,both
1970-02-01 11:39:46.750,1649.0,1.28026948,-4.66408448,8.511357,0.0,1.0,D,-0.0001731054119999998,0.00042317625599999994,5.83232060000001e-05,both
1970-02-01 11:39:47.000,1649.0,1.28505782,-4.6554652999999995,8.5645082,0.0,1.0,D,0.0072837461,-0.0066075690719999995,-0.0035635759340000004,both
1970-02-01 11:39:47.250,1649.0,1.31330938,-4.63104438,8.5041746,0.0,1.0,D,-0.015940936,0.0078785364,0.00240446168,both
1970-02-01 11:39:47.500,1649.0,1.2682984000000002,-4.71962994,8.5147089,0.0,1.0,D,0.0015289205800000018,0.0021257351719999994,0.0038964709239999997,both
1970-02-01 11:39:47.750,1649.0,1.33342072,-4.67270364,8.5443968,0.0,1.0,D,0.0015294003999999995,-0.00021752706400000017,-0.00015217310880000028,both
1970-02-01 11:39:48.000,1649.0,1.28410016,-4.66504224,8.5276376,0.0,1.0,D,-0.0020921796399999996,0.000208791784,0.0013387710800000002,both
1970-02-01 11:39:48.250,1649.0,1.30133844,-4.682759280000001,8.5190184,0.0,1.0,D,0.0008903479999999998,-0.002134896368,-0.00143070332,both
1970-02-01 11:39:48.500,1649.0,1.28074824,-4.640621399999999,8.541524,0.0,1.0,D,-0.005927664173999999,-0.0017089502799999996,0.0032567799179999994,both
1970-02-01 11:39:48.750,1649.0,1.31283058,-4.69616684,8.5309896,0.0,1.0,D,-0.00422313394,0.0031913726199999997,-0.00718291826,both
1970-02-01 11:39:49.000,1649.0,1.34634936,-4.68419586,8.550622200000001,0.0,1.0,D,-0.0044357612,-0.0010692590199999998,0.0015518238599999993,both
1970-02-01 11:39:49.250,1649.0,1.35161664,-4.6908996,8.564508199999999,0.0,1.0,D,0.0017427723799999996,-0.00426505244,-0.01144440186,both
1970-02-01 11:39:49.500,1649.0,1.31905552,-4.71675688,8.496034,0.0,1.0,D,-0.0208432302,0.001485245028,-0.00611515038,both
1970-02-01 11:39:49.750,1649.0,1.320970848,-4.70191284,8.4720922,0.0,1.0,D,0.0322069388,0.002976615099999999,0.01348571546,both
1970-02-01 11:39:50.000,1649.0,1.3113940200000003,-4.630565559999999,8.542481800000001,0.0,1.0,D,0.007067975999999998,0.00233852154,0.0028315795599999994,both
1970-02-01 11:39:50.250,1649.0,1.30899984,-4.641579060000001,8.533862599999999,0.0,1.0,D,0.00451166124,-0.0019222697079999997,6.151896000000006e-05,both
1970-02-01 11:39:50.500,1649.0,1.2999019,-4.67509786,8.584140600000001,0.0,1.0,D,-0.0016671923320000007,0.00297778702,0.0017661018479999998,both
1970-02-01 11:39:50.750,1649.0,1.3046903200000002,-4.669830660000001,8.5692968,0.0,1.0,D,0.0038719699799999994,-5.060040000000104e-06,-0.0010034791719999998,both
1970-02-01 11:39:51.000,1649.0,1.3037326,-4.653071200000001,8.5415238,0.0,1.0,D,-0.0052884520800000005,0.000847790762,-0.003348019682,both
1970-02-01 11:39:51.250,1649.0,1.32623814,-4.6741402,8.508005,0.0,1.0,D,-0.004434962279999999,-0.0072472603,-0.013575996000000002,both
1970-02-01 11:39:51.500,1649.0,1.35353198,-4.673661359999999,8.511356999999999,0.0,1.0,D,0.0036604085279999996,-0.0023475764299999997,-0.00292255298,both
1970-02-01 11:39:51.750,1649.0,1.3487435599999997,-4.65402888,8.537693,0.0,1.0,D,0.010262491100000002,0.0008460863399999994,0.01092908074,both
1970-02-01 11:39:52.000,1649.0,1.33629374,-4.655465459999999,8.512793400000001,0.0,1.0,D,0.0032317456199999995,0.0034027209400000003,0.017320667199999997,both
1970-02-01 11:39:52.250,1649.0,1.2951134599999998,-4.640142559999999,8.5736064,0.0,1.0,D,-0.0040096552,0.00447011584,0.005173722939999999,both
1970-02-01 11:39:52.500,1649.0,1.27691758,-4.63822712,8.5621138,0.0,1.0,D,0.0023819313599999993,0.0010612696599999998,0.0019779298,both
1970-02-01 11:39:52.750,1649.0,1.30373262,-4.63679066,8.5415238,0.0,1.0,D,-0.00017640779999999987,-0.00149664344,-0.00015068168000000005,both
1970-02-01 11:39:53.000,1649.0,1.30469028,-4.59800452,8.5793524,0.0,1.0,D,0.0023798007399999997,-0.00021864533999999997,-0.00057630792,both
1970-02-01 11:39:53.250,1649.0,1.27548104,-4.7292065999999995,8.495555200000002,0.0,1.0,D,-0.0101914386,0.0044675592,-0.00014876405000000017,both
1970-02-01 11:39:53.500,1649.0,1.28936738,-4.632959860000001,8.560198600000001,0.0,1.0,D,0.0019518309500000004,-0.000646349132,0.005178516820000001,both
1970-02-01 11:39:53.750,1649.0,1.29654996,-4.66456344,8.5511008,0.0,1.0,D,0.00280319022,-0.0025644642819999995,0.00262294732,both
1970-02-01 11:39:54.000,1649.0,1.29846536,-4.65402896,8.5305108,0.0,1.0,D,-0.0008199872000000002,0.0006303702179999999,0.0028375980999999994,both
1970-02-01 11:39:54.250,1649.0,1.29654998,-4.64157906,8.5592414,0.0,1.0,D,0.00173654074,-0.0010742126600000001,0.0009203352748,both
1970-02-01 11:39:54.500,1649.0,1.32049202,-4.64301548,8.551100799999999,0.0,1.0,D,-0.01850390992,0.0019078885460000008,0.004543086619999999,both
1970-02-01 11:39:54.750,1649.0,1.23861032,-4.72633382,8.5238068,0.0,1.0,D,0.014093182540000002,-0.0074664385,-0.0071748219252,both
1970-02-01 11:39:55.000,1649.0,1.31905546,-4.68228032,8.5400874,0.0,1.0,D,-0.001672731220000001,0.0023339943260000003,0.005395297874800001,both
1970-02-01 11:39:55.250,1649.0,1.3003807000000003,-4.643494419999999,8.5578046,0.0,1.0,D,0.005144961140000001,-0.0008617990139999996,0.00305171616,both
1970-02-01 11:39:55.500,1649.0,1.32192854,-4.66169036,8.5228492,0.0,1.0,D,0.001097808,-0.002565369754,0.0015590677,both
1970-02-01 11:39:55.750,1649.0,1.3042114200000001,-4.66121148,8.5472698,0.0,1.0,D,-0.009128517300000001,0.0042525356,-0.0005717807460000002,both
1970-02-01 11:39:56.000,1649.0,1.2917616200000002,-4.70765894,8.5252434,0.0,1.0,D,-0.004016206955999999,0.0031864725,0.00347734264,both
1970-02-01 11:39:56.250,1649.0,1.29128276,-4.673661299999999,8.536256599999998,0.0,1.0,D,0.00258779372,-0.00128817096,0.001347559518,both
1970-02-01 11:39:56.500,1649.0,1.27787518,-4.68706888,8.5424817,0.0,1.0,D,0.004718322580000001,0.0002031991620000002,0.0002822950799999998,both
1970-02-01 11:39:56.750,1649.0,1.31378824,-4.64924056,8.583183199999999,0.0,1.0,D,0.0021616881400000005,-0.0023534354259999997,0.0004953479400000001,both
1970-02-01 11:39:57.000,1649.0,1.2936769,-4.676055539999999,8.5453548,0.0,1.0,D,-0.0006078928599999999,-0.000435906164,0.00113440014,both
1970-02-01 11:39:57.250,1649.0,1.27883286,-4.69520912,8.5688176,0.0,1.0,D,-0.00060746703,-0.0019270633600000004,0.0013470268600000001,both
1970-02-01 11:39:57.500,1649.0,1.28410014,-4.663126839999999,8.5841408,0.0,1.0,D,0.0025883262,0.001481782786,0.00219923848,both
1970-02-01 11:39:57.750,1649.0,1.2773964,-4.66360568,8.5673814,0.0,1.0,D,0.004503671819999999,0.000841026268,0.0013496899,both
1970-02-01 11:39:58.000,1649.0,1.29607114,-4.67078832,8.545833199999999,0.0,1.0,D,-0.00678813108,0.00339766091,0.0047585362600000005,both
1970-02-01 11:39:58.250,1649.0,1.28266366,-4.6928149,8.490288,0.0,1.0,D,0.0006691459199999999,0.00126755814,-0.0012073707832,both
1970-02-01 11:39:58.500,1649.0,1.28266356,-4.67126712,8.5396084,0.0,1.0,D,0.0027997812599999997,-1.0652651999999994e-05,0.00092305164,both
1970-02-01 11:39:58.750,1649.0,1.28362132,-4.665521,8.5649872,0.0,1.0,D,-0.0012490224800000003,0.00084091975,-0.0012065185200000003,both
1970-02-01 11:39:59.000,1649.0,1.2659042,-4.6865900400000005,8.5166242,0.0,1.0,D,-0.000397343646,-0.0019291938680000003,0.00220296684,both
1970-02-01 11:39:59.250,1649.0,1.3018172,-4.66456336,8.591802,0.0,1.0,D,0.008338357420000001,-0.001928767806,-0.00248483578,both
1970-02-01 11:39:59.500,1649.0,1.28026944,-4.6482828,8.565466,0.0,1.0,D,0.0006692523720000001,0.00105461178,-0.00014221278319999998,both
1970-02-01 11:39:59.750,1649.0,1.2620735200000002,-4.64540974,8.5611564,0.0,1.0,D,-0.0003964914919999997,0.00062813316,0.0015627962320000001,both
1970-02-01 11:40:00.000,1649.0,1.2908039,-4.653071280000001,8.545833400000001,0.0,1.0,D,0.001092961232,0.0010527475599999999,7.3769524e-05,both
1970-02-01 11:40:00.250,1649.0,1.2831424599999999,-4.65594424,8.5659446,0.0,1.0,D,0.00194517274,-0.0010777812500000002,0.000286822464,both
1970-02-01 11:40:00.500,1649.0,1.2888885399999999,-4.639663659999999,8.573127399999999,0.0,1.0,D,0.0015233282399999995,0.0006301038600000002,0.002198705788,both
1970-02-01 11:40:00.750,1649.0,1.29415582,-4.64253672,8.553016000000001,0.0,1.0,D,-0.0016724653199999995,0.0023345269600000005,0.0009203883799999998,both
1970-02-01 11:40:01.000,1649.0,1.2908039,-4.64636748,8.575521799999999,0.0,1.0,D,0.0021599301999999996,-0.0010764496400000002,-0.0009938917199999997,both
1970-02-01 11:40:01.250,1649.0,1.29990182,-4.63535406,8.5429604,0.0,1.0,D,0.002159291028,-0.0008639293980000001,0.00262880622,both
1970-02-01 11:40:01.500,1649.0,1.2936769800000003,-4.660732599999999,8.58031,0.0,1.0,D,0.00024117583999999992,-0.00043830302000000005,0.000712289032,both
1970-02-01 11:40:01.750,1649.0,1.30373258,-4.651634679999999,8.586056,0.0,1.0,D,-0.0019574234800000005,-0.000692421812,-0.00225702904,both
1970-02-01 11:40:02.000,1649.0,1.31283052,-4.652113560000001,8.542481599999999,0.0,1.0,D,-0.0047271109199999994,0.00250337136,0.0005126586259999998,both
1970-02-01 11:40:02.250,1649.0,1.2764387200000002,-4.6688729,8.5367354,0.0,1.0,D,-0.004514058,0.002503371408,0.0009387643260000001,both
1970-02-01 11:40:02.500,1649.0,1.28074826,-4.688505340000001,8.525243399999999,0.0,1.0,D,0.0008122641719999997,-0.0019707391919999997,-0.00012650022000000038,both
1970-02-01 11:40:02.750,1649.0,1.2630312199999998,-4.67126714,8.5285954,0.0,1.0,D,-0.0008921590399999998,0.00101200116,0.00136487014,both
1970-02-01 11:40:03.000,1649.0,1.29607118,-4.65402888,8.552537400000002,0.0,1.0,D,-0.001318264488,0.0012250541399999998,0.0009387641399999999,both
1970-02-01 11:40:03.250,1649.0,1.28170596,-4.67174598,8.553495,0.0,1.0,D,0.0035819519600000004,-0.00111852768,-0.0003395530600000001,both
1970-02-01 11:40:03.500,1649.0,1.284579,-4.6516347,8.5472704,0.0,1.0,D,-0.002596581788,-0.0004793689720000001,0.0011518171400000002,both
1970-02-01 11:40:03.750,1649.0,1.2750022399999998,-4.6659999,8.5520586,0.0,1.0,D,-0.007285236400000001,-5.4541599999999824e-05,-0.0037462688399999998,both
1970-02-01 11:40:04.000,1649.0,1.2812271000000002,-4.66743642,8.546791200000001,0.0,1.0,D,0.0035800876000000002,-0.00026791389999999987,0.0032850093,both
1970-02-01 11:40:04.250,1649.0,1.28170594,-4.68323812,8.540087199999999,0.0,1.0,D,-0.0015327026199999994,0.00015851132599999999,-0.0009768474059999998,both
1970-02-01 11:40:04.500,1649.0,1.28697316,-4.6727037,8.552058399999998,0.0,1.0,D,0.005072256608,-0.0006934870739999999,0.0026445189600000003,both
1970-02-01 11:40:04.750,1649.0,1.2931981399999999,-4.64684624,8.547748799999999,0.0,1.0,D,-0.0062195459600000004,0.001437041766,-0.0045992791880000005,both
1970-02-01 11:40:05.000,1649.0,1.2860155,-4.73255864,8.5137514,0.0,1.0,D,-0.00025406606000000014,-0.001332645834,0.0030706246200000002,both
1970-02-01 11:40:05.250,1649.0,1.29894422,-4.660732660000001,8.581747,0.0,1.0,D,-0.00217212736,0.0007974037360000003,-0.0024678982400000004,both
1970-02-01 11:40:05.500,1649.0,1.22328748,-4.64349438,8.541044900000001,0.0,1.0,D,0.014443654319999999,-0.0034655715999999995,-0.0028905952000000006,both
1970-02-01 11:40:05.750,1649.0,1.26159464,-4.66408456,8.5458336,0.0,1.0,D,-0.0028136296000000004,0.00036938037199999997,0.0058445735,both
1970-02-01 11:40:06.000,1649.0,1.2874521,-4.62912918,8.598026899999999,0.0,1.0,D,0.006133526439999999,0.002285791224,-0.006937002119999999,both
1970-02-01 11:40:06.250,1649.0,1.2855366799999999,-4.665521,8.5554104,0.0,1.0,D,-0.009632387400000001,0.004203267219999999,0.00456785412,both
1970-02-01 11:40:06.500,1649.0,1.2682983799999998,-4.67078832,8.5123144,0.0,1.0,D,-0.01453153844,0.0007954861800000002,0.011809947639999999,both
1970-02-01 11:40:06.750,1649.0,1.2572851,-4.72489724,8.5103992,0.0,1.0,D,-0.0040916806399999995,-0.0002695120399999997,0.0005177186799999997,both
1970-02-01 11:40:07.000,1649.0,1.25680628,-4.7071802,8.517102999999999,0.0,1.0,D,-0.0141040472,-0.0011207647800000001,-0.00651462454,both
1970-02-01 11:40:07.250,1649.0,1.2615946199999999,-4.706701300000001,8.5635508,0.0,1.0,D,0.004432298740000001,-0.0051681305599999994,-0.00736790128,both
1970-02-01 11:40:07.500,1649.0,1.2750022,-4.733516360000001,8.539129599999999,0.0,1.0,D,-0.00835172656,0.00015744607999999984,-0.002892512479999999,both
1970-02-01 11:40:07.750,1649.0,1.28601552,-4.743571940000001,8.5242858,0.0,1.0,D,0.0035779568599999994,-0.000695884008,-0.0009731188199999999,both
1970-02-01 11:40:08.000,1649.0,1.27595994,-4.7445296400000005,8.491245600000001,0.0,1.0,D,0.0116740198,-0.0045307824839999995,0.006696678459999999,both
1970-02-01 11:40:08.250,1649.0,1.2783540800000002,-4.6750979,8.570733,0.0,1.0,D,0.019983295760000002,-0.0038914111,-0.004169444836,both
1970-02-01 11:40:08.500,1649.0,1.31235172,-4.64253674,8.593238799999998,0.0,1.0,D,0.0008085355400000001,-0.00026951199999999985,0.0007307715200000002,both
1970-02-01 11:40:08.750,1649.0,1.31043642,-4.68036508,8.5534948,0.0,1.0,D,-0.00323893658,0.0012221245540000002,0.00243466192,both
1970-02-01 11:40:09.000,1649.0,1.29032504,-4.63583296,8.564029600000001,0.0,1.0,D,-0.00132146056,-0.0026128272599999997,-0.00076113138,both
1970-02-01 11:40:09.250,1649.0,1.2912827000000002,-4.65785964,8.5855774,0.0,1.0,D,-0.00217495038,-0.0009094695279999998,-0.000759427,both
1970-02-01 11:40:09.500,1649.0,1.29750764,-4.67749208,8.542003000000001,0.0,1.0,D,0.0022988405999999997,0.004416586464,0.000519316488,both
1970-02-01 11:40:09.750,1649.0,1.28697318,-4.6047084,8.603294400000001,0.0,1.0,D,0.0052814214,0.0010075803480000002,0.00222405918,both
1970-02-01 11:40:10.000,1649.0,1.2630312,-4.66121146,8.5501426,0.0,1.0,D,-0.00132332472,-0.0013361079959999997,0.00307648346,both
1970-02-01 11:40:10.250,1649.0,1.28266364,-4.635833000000001,8.5822256,0.0,1.0,D,-0.0019623768000000003,-0.0015490543619999999,-0.000545628406,both
1970-02-01 11:40:10.500,1649.0,1.25261645,-4.661211525000001,8.535778125,0.0,1.0,D,-0.004731904333333333,0.005055744883333333,-0.0004039127666666664,both
1970-02-01 11:40:38.000,1649.0,4.338941833333333,-3.4401685333333334,5.751321433333334,0.0,1.0,E,1.51542275,-0.41783424999999996,0.75661099,both
1970-02-01 11:40:38.250,1649.0,5.219689,-4.366724585999999,6.19185452,0.0,1.0,E,0.236040232,-0.49538551000000003,0.54888442,both
1970-02-01 11:40:38.500,1649.0,6.999538419999999,-3.5972281960000005,7.2515282,0.0,1.0,E,0.024049305199999992,-0.3515777788,-0.46183357,both
1970-02-01 11:40:38.750,1649.0,7.06897048,-5.21044128,3.0377332667999997,0.0,1.0,E,-2.7799447,0.508512218,-0.599458404,both
1970-02-01 11:40:39.000,1649.0,7.0953064999999995,-5.59255608,3.0372543,0.0,1.0,E,-1.6539615079999996,0.18126189199999998,-1.087134528,both
1970-02-01 11:40:39.250,1649.0,10.0368228,-4.67557662,2.09393886,0.0,1.0,E,0.7874064639999999,-0.42168224699999995,0.35992833599999996,both
1970-02-01 11:40:39.500,1649.0,8.9153788,-4.41987602,2.26105416,0.0,1.0,E,0.157196016,0.1501516818,-0.03784138599999999,both
1970-02-01 11:40:39.750,1649.0,6.10362828,-7.190445880000001,0.6349123600000001,0.0,1.0,E,-0.9792291799999999,0.09560907200000002,0.7457687159999999,both
1970-02-01 11:40:40.000,1649.0,5.7670034800000005,-6.79300874,1.4489408520000002,0.0,1.0,E,0.02616740400000004,-0.38972539399999995,0.19566617366,both
1970-02-01 11:40:40.250,1649.0,6.942556400000001,-6.964912320000001,0.38830958,0.0,1.0,E,0.04022656720000001,0.004846632800000012,-0.167585588,both
1970-02-01 11:40:40.500,1649.0,7.2834908,-6.8533424400000005,0.573141942,0.0,1.0,E,-0.0045151202,0.005698363600000001,-0.0574363944,both
1970-02-01 11:40:40.750,1649.0,6.9981019,-7.01950008,0.5391442879999999,0.0,1.0,E,-0.04201195146,0.025725656200000002,0.0043483035800000016,both
1970-02-01 11:40:41.000,1649.0,7.43241026,-6.999867740000001,0.7124844819999999,0.0,1.0,E,0.09178557999999999,0.083676255,-0.0097136136,both
1970-02-01 11:40:41.250,1649.0,6.31479674,-6.6474412,0.63539118,0.0,1.0,E,0.056204470000000006,-0.10253313900000001,0.45453054000000004,both
1970-02-01 11:40:41.500,1649.0,5.603240080000001,-7.520846080000001,0.5721842424,0.0,1.0,E,-0.34966320666,-0.369916264,-0.148832354,both
1970-02-01 11:40:41.750,1649.0,6.75437206,-7.35564602,-0.0900519144,0.0,1.0,E,0.32784418200000004,-0.10786191519999999,-0.1456353848,both
1970-02-01 11:40:42.000,1649.0,6.81470622,-7.17320774,-0.084784664,0.0,1.0,E,-0.3021564008,0.17570871,0.03162929864,both
1970-02-01 11:40:42.250,1649.0,6.7965103,-7.166025340000002,-0.387890604,0.0,1.0,E,-0.019861323,-0.1089299466,-0.00842464384,both
1970-02-01 11:40:42.500,1649.0,6.7333032799999994,-7.1344218,-0.34671033400000006,0.0,1.0,E,-0.0351968686,0.008252869599999999,-0.00800492914,both
1970-02-01 11:40:42.750,1649.0,6.598749119999999,-7.177038540000001,-0.490841274,0.0,1.0,E,-0.01026968412,0.0265754178,0.0052043492,both
1970-02-01 11:40:43.000,1649.0,6.665786880000001,-7.138731320000001,-0.42188827599999995,0.0,1.0,E,-0.0411632017,0.0182657167,0.007975315260000001,both
1970-02-01 11:40:43.250,1649.0,6.61359324,-7.20433254,-0.4645050540000001,0.0,1.0,E,-0.0394589912,0.032113994800000004,9.267813600000036e-05,both
1970-02-01 11:40:43.500,1649.0,6.601622280000001,-7.21486694,-0.381665678,0.0,1.0,E,0.0421391438,-0.052255907719999994,-0.032502814799999995,both
1970-02-01 11:40:43.750,1649.0,6.641844799999999,-7.1210142,-0.40848074199999995,0.0,1.0,E,0.09561467300000001,-0.11617240879999999,-0.0369758614,both
1970-02-01 11:40:44.000,1649.0,6.76442782,-7.0281194,-0.520529374,0.0,1.0,E,0.110314896,-0.164109628,-0.0521019762,both
1970-02-01 11:40:44.250,1649.0,6.79842546,-6.959166259999999,-0.634972226,0.0,1.0,E,0.149089884,-0.28895910199999997,-0.0631797686,both
1970-02-01 11:40:44.500,1649.0,6.864505459999999,-6.94049138,-0.7767089599999999,0.0,1.0,E,0.14845046,-0.284698316,-0.009276962120000001,both
1970-02-01 11:40:44.750,1649.0,6.914783679999999,-6.8145563199999994,-1.1870751199999998,0.0,1.0,E,0.23750549799999998,-0.323688054,-0.10174020980000001,both
1970-02-01 11:40:45.000,1649.0,7.0474224,-6.61248592,-1.42266456,0.0,1.0,E,0.05811496799999999,-0.085707979,0.03248310880000001,both
1970-02-01 11:40:45.250,1649.0,6.687334580000001,-7.04296328,-1.40159558,0.0,1.0,E,-0.1679360088,0.0930417918,0.050808321000000004,both
1970-02-01 11:40:45.500,1649.0,6.50058686,-7.20720544,-1.3446136119999998,0.0,1.0,E,0.29864980560000004,-0.508619566,-0.1281561028,both
1970-02-01 11:40:45.750,1649.0,7.230738616666667,-6.353912149999999,-2.0426032166666666,0.0,1.0,E,0.28661210333333337,-0.43312804833333324,-0.25073208666666663,both
1970-02-01 11:40:46.000,1649.0,7.0804626200000005,-6.243299840000001,-2.1313482,0.0,1.0,E,-0.05778793339999999,0.052774528999999994,-0.033773142,both
1970-02-01 11:40:46.250,1649.0,7.09099704,-6.384557839999999,-2.0461146599999998,0.0,1.0,E,-0.152168868,0.158023931,0.133045135,both
1970-02-01 11:40:46.500,1649.0,6.9478235800000006,-6.61392232,-2.0906468400000002,0.0,1.0,E,-0.293635604,0.29224757800000006,0.11429594679999999,both
1970-02-01 11:40:46.750,1649.0,6.92627596,-6.6053032,-1.9642330600000002,0.0,1.0,E,-0.0991188066,0.136505434,0.00777014516,both
1970-02-01 11:40:47.000,1649.0,7.2418316800000015,-6.40323254,-1.90725102,0.0,1.0,E,-0.189027444,0.37789403600000004,0.1117403794,both
1970-02-01 11:40:47.250,1649.0,6.950696760000001,-6.57944586,-1.51747492,0.0,1.0,E,-0.482188328,0.754358372,0.17288677199999997,both
1970-02-01 11:40:47.500,1649.0,6.497713719999998,-7.29148132,-0.707755926,0.0,1.0,E,-0.4353168459999999,0.6403749320000001,0.141355261,both
1970-02-01 11:40:47.750,1649.0,6.584862800000001,-7.155490639999999,-0.49850271599999996,0.0,1.0,E,0.01635436600000001,-0.060143709200000006,-0.098327955,both
1970-02-01 11:40:48.000,1649.0,7.113023539999999,-6.567953580000001,-0.8782231280000001,0.0,1.0,E,0.198297912,-0.293439606,-0.127937195,both
1970-02-01 11:40:48.250,1649.0,7.1690479400000005,-6.5430540399999995,-0.970160474,0.0,1.0,E,-0.023916252,-0.011144531,0.0314263655,both
1970-02-01 11:40:48.500,1649.0,7.044549480000001,-6.735069,-0.9155726339999999,0.0,1.0,E,-0.080800039,0.088565019,0.0608260652,both
1970-02-01 11:40:48.750,1649.0,6.94399276,-6.8068949000000005,-0.951485686,0.0,1.0,E,0.0116649118,-0.005817409079999998,-0.006072539746,both
1970-02-01 11:40:49.000,1649.0,6.99762298,-6.744166899999999,-0.9787796180000001,0.0,1.0,E,0.0259396686,-0.0179609976,-0.006499071719999999,both
1970-02-01 11:40:49.250,1649.0,6.987567299999999,-6.74129376,-0.9514856939999999,0.0,1.0,E,-0.0226363362,0.01847115286,0.014806110459999999,both
1970-02-01 11:40:49.500,1649.0,6.943513899999999,-6.805937159999999,-0.9251494600000001,0.0,1.0,E,-0.0096417082,0.00994759888,0.018430245999999997,both
1970-02-01 11:40:49.750,1649.0,6.96051282,-6.8235946400000005,-0.9584588139999999,0.0,1.0,E,0.019758524559999997,-0.0222243458,-0.0124609303,both
1970-02-01 11:40:50.000,1649.0,6.9633860599999995,-6.77738646,-0.9681553199999999,0.0,1.0,E,0.012727353279999997,-0.00496738142,0.0096972085,both
1970-02-01 11:40:50.250,1649.0,6.94806322,-6.78696334,-0.934636488,0.0,1.0,E,0.002074069852000001,0.0020628843999999993,0.01289396094,both
1970-02-01 11:40:50.500,1649.0,6.94040178,-6.860226,-0.90782144,0.0,1.0,E,0.022527094200000004,-0.01668582284,0.004585004679999999,both
1970-02-01 11:40:50.750,1649.0,6.8795891,-6.843466619999999,-0.841262628,0.0,1.0,E,0.03467089444,-0.0288300506,-0.025455025399999998,both
1970-02-01 11:40:51.000,1649.0,6.916459719999999,-6.837720419999999,-0.895850448,0.0,1.0,E,0.0005824332000000001,0.026776752519999995,0.067649084,both
1970-02-01 11:40:51.250,1649.0,6.83553584,-6.9708378,-0.876217982,0.0,1.0,E,-0.00495427864,0.007178018060000001,0.0384568446,both
1970-02-01 11:40:51.500,1649.0,6.779511340000001,-7.01955996,-0.7984064100000001,0.0,1.0,E,0.005059207040000001,-0.0068834727,0.0009595369400000001,both
1970-02-01 11:40:51.750,1649.0,6.7528160999999995,-7.0210861399999995,-0.8135497239999999,0.0,1.0,E,-0.015821466880000003,0.021238229860000003,0.0120404178,both
1970-02-01 11:40:52.000,1649.0,6.7370144,-7.038803240000002,-0.814507402,0.0,1.0,E,-0.0166740515,0.01825517,0.019710854,both
1970-02-01 11:40:52.250,1649.0,6.729831679999999,-7.016776519999999,-0.847068552,0.0,1.0,E,0.0022871759999999997,0.01143715846,0.0050110040039999994,both
1970-02-01 11:40:52.500,1649.0,6.72408566,-7.00767876,-0.839885954,0.0,1.0,E,-0.01710095616,0.018680743780000002,-0.004575843259999999,both
1970-02-01 11:40:52.750,1649.0,6.713551239999999,-7.0273112,-0.806845972,0.0,1.0,E,0.004203374000000001,0.003339976280000001,-0.00095255954,both
1970-02-01 11:40:53.000,1649.0,6.7331837000000005,-7.023001520000001,-0.8068459500000001,0.0,1.0,E,0.009315204839999999,-0.0071010526,-0.008194280199999997,both
1970-02-01 11:40:53.250,1649.0,6.74180272,-7.0230017,-0.7929595840000001,0.0,1.0,E,0.0007930893200000001,0.0020602213600000004,-0.00137658784,both
1970-02-01 11:40:53.500,1649.0,6.70636858,-7.0311418,-0.76087732,0.0,1.0,E,-0.0032549152,0.014843394131999999,0.0016061523599999999,both
1970-02-01 11:40:53.750,1649.0,6.716424259999999,-7.03545158,-0.73071034,0.0,1.0,E,-0.00346796826,0.0050429618320000005,0.004588892824,both
1970-02-01 11:40:54.000,1649.0,6.71690308,-7.028268799999999,-0.7441178800000001,0.0,1.0,E,-0.0122063328,0.01611904866,0.017377125799999997,both
1970-02-01 11:40:54.250,1649.0,6.680511200000001,-7.06753378,-0.7551312,0.0,1.0,E,-0.0209415006,0.022297581599999998,0.0158857558,both
1970-02-01 11:40:54.500,1649.0,6.660878800000001,-7.131698580000001,-0.757525408,0.0,1.0,E,-0.013269679139999999,0.004189791579999999,0.00011664636600000021,both
1970-02-01 11:40:54.750,1649.0,6.702447960000001,-7.10799564,-0.753964026,0.0,1.0,E,-0.00496013762,-0.012640960114000002,-0.021615547199999998,both
1970-02-01 11:40:55.000,1649.0,6.716813139999999,-7.01605844,-0.807115334,0.0,1.0,E,-0.0026171949999999997,-0.021163715000000003,-0.028432280799999998,both
1970-02-01 11:40:55.250,1649.0,6.757514500000001,-6.98014528,-0.8827720939999999,0.0,1.0,E,0.03594495065,-0.034373419100000004,0.012048407220000001,both
1970-02-01 11:40:55.500,1649.0,6.707715299999999,-7.05723866,-0.8492532620000001,0.0,1.0,E,-0.00027414579999999745,0.02826402200000001,-0.0017998184,both
1970-02-01 11:40:55.750,1649.0,6.7781046400000005,-7.05771756,-0.829620826,0.0,1.0,E,-0.0428848836,0.05873042340000001,0.022701584539999996,both
1970-02-01 11:40:56.000,1649.0,6.7220803799999995,-7.0395216000000005,-0.7951443,0.0,1.0,E,0.0344535277,-0.029473256200000002,-0.0171396252,both
1970-02-01 11:40:56.250,1649.0,6.716334260000001,-7.060590500000001,-0.689320606,0.0,1.0,E,0.0297672164,-0.006036586359999998,-0.03205460626,both
1970-02-01 11:40:56.500,1649.0,6.847057599999999,-6.914065599999999,-0.695066678,0.0,1.0,E,0.0099532981,0.028904084799999997,-0.01096237022,both
1970-02-01 11:40:56.750,1649.0,6.77379512,-7.02180454,-0.555724132,0.0,1.0,E,-0.017746240200000003,0.027836691199999996,0.015672969039999998,both
1970-02-01 11:40:57.000,1649.0,6.77044322,-7.02324098,-0.552372264,0.0,1.0,E,0.00909842382,-0.021804631600000002,0.00651169508,both
1970-02-01 11:40:57.250,1649.0,6.74123402,-7.020846799999999,-0.611748458,0.0,1.0,E,0.017620965199999998,-0.020099994919999996,0.008428744800000002,both
1970-02-01 11:40:57.500,1649.0,6.72638998,-7.042873499999999,-0.671124668,0.0,1.0,E,-0.00219284676,-0.0015643408400000003,0.016311595300000002,both
1970-02-01 11:40:57.750,1649.0,6.72543228,-7.06729424,-0.657717126,0.0,1.0,E,0.0182599109,-0.016691255319999997,-0.0032889506719999996,both
1970-02-01 11:40:58.000,1649.0,6.74123402,-7.0433523000000005,-0.642873088,0.0,1.0,E,0.0235860196,-0.00369513598,-0.018202439800000005,both
1970-02-01 11:40:58.250,1649.0,6.7690067,-7.00265098,-0.653407578,0.0,1.0,E,-0.0051765455,-0.0254269566,-0.0243803342,both
1970-02-01 11:40:58.500,1649.0,6.78959684,-6.985412680000001,-0.6534075680000001,0.0,1.0,E,-0.0230736274,0.00141706786,-0.0015827167999999988,both
1970-02-01 11:40:58.750,1649.0,6.696223119999999,-7.0950670800000015,-0.702249286,0.0,1.0,E,-0.021369097920000003,0.011430606999999999,0.0346361674,both
1970-02-01 11:40:59.000,1649.0,6.8025255,-7.025635339999999,-0.7079953760000001,0.0,1.0,E,0.042334142000000005,-0.048010936000000004,-0.029706230060000005,both
1970-02-01 11:40:59.250,1649.0,6.82503108,-6.91837512,-0.7884405539999999,0.0,1.0,E,-0.000489488959999998,0.012709136999999995,0.0088563429,both
1970-02-01 11:40:59.500,1649.0,6.7609862000000005,-6.992715000000001,-0.7095515880000001,0.0,1.0,E,0.0048317729000000005,-0.009452622999999999,-0.016702547640000003,both
1970-02-01 11:40:59.750,1649.0,6.78052892,-7.0092647999999995,-0.7003638600000001,0.0,1.0,E,-0.0011337070400000003,0.005461078293999997,-0.01116317194,both
1970-02-01 11:41:00.000,1649.0,6.8116534,-6.97526718,-0.7348403620000001,0.0,1.0,E,0.00738670332,0.0005591573800000001,-0.004769028946,both
1970-02-01 11:41:00.250,1649.0,6.819315039999999,-6.97814018,-0.676421844,0.0,1.0,E,0.00845154174,-0.0011456918399999998,-0.008816394926,both
1970-02-01 11:41:00.500,1649.0,6.845651119999999,-6.93265052,-0.687435162,0.0,1.0,E,-0.012425883000000002,0.01376960803,-0.00221431191,both
1970-02-01 11:41:00.750,1649.0,6.818357320000001,-6.9752671400000015,-0.676900672,0.0,1.0,E,-0.00816365406,0.008444350879999998,0.010567156900000001,both
1970-02-01 11:41:01.000,1649.0,6.7872328,-6.9824496400000005,-0.663493144,0.0,1.0,E,0.00440603984,-0.00561756538,0.0124852722,both
1970-02-01 11:41:01.250,1649.0,6.78005012,-6.99825154,-0.665408516,0.0,1.0,E,-0.0034775556799999997,-0.00071798812,0.01120791312,both
1970-02-01 11:41:01.500,1649.0,6.767600200000001,-7.01405312,-0.6644508100000001,0.0,1.0,E,-0.0041162351,0.006100183428,0.004389475274,both
1970-02-01 11:41:01.750,1649.0,6.7661637599999995,-7.0011244,-0.69413892,0.0,1.0,E,-0.007949269200000001,0.0012018847999999993,0.005451757020000001,both
1970-02-01 11:41:02.000,1649.0,6.760417680000001,-7.084921660000001,-0.6587047319999999,0.0,1.0,E,0.017617077119999998,-0.023725303200000002,-0.01457521436,both
1970-02-01 11:41:02.250,1649.0,6.80542864,-6.98771702,-0.696533128,0.0,1.0,E,-0.0226523155,0.014409033199999999,0.00034221618000000004,both
1970-02-01 11:41:02.500,1649.0,6.73408148,-7.04278362,-0.6323685320000001,0.0,1.0,E,-0.0316005372,0.02399641334,0.015042865739999998,both
1970-02-01 11:41:02.750,1649.0,6.71971616,-7.06576788,-0.66253547,0.0,1.0,E,0.04808294679999999,-0.045244284600000004,-0.01947425952,both
1970-02-01 11:41:03.000,1649.0,6.80351332,-6.97095762,-0.6888716699999999,0.0,1.0,E,0.04829642535999999,-0.061862035,-0.0062656192,both
1970-02-01 11:41:03.250,1649.0,6.8351168,-6.953719340000001,-0.742980648,0.0,1.0,E,0.0024889364799999996,-0.0034865038000000013,0.01440210904,both
1970-02-01 11:41:03.500,1649.0,6.7771772,-6.99633624,-0.73914993,0.0,1.0,E,0.0007837683999999991,0.006952448634,0.0035374770599999996,both
1970-02-01 11:41:03.750,1649.0,6.764727160000001,-7.037995219999999,-0.7061099300000001,0.0,1.0,E,-0.012851616799999998,0.01888341,0.014616227,both
1970-02-01 11:41:04.000,1649.0,6.7747828,-7.04709326,-0.708504142,0.0,1.0,E,-0.0188170972,0.007165501133999999,-0.0203244462,both
1970-02-01 11:41:04.250,1649.0,6.7474890400000005,-6.963774979999999,-0.586878708,0.0,1.0,E,0.018466571799999998,0.019308982900000004,-0.01180147874,both
1970-02-01 11:41:04.500,1649.0,6.71540664,-7.060500760000001,-0.656789386,0.0,1.0,E,0.170370937,-0.1754234802,-0.0354469396,both
1970-02-01 11:41:04.750,1649.0,6.922185850000001,-6.851008149999998,-0.6391520883333333,0.0,1.0,E,-0.04541604016666667,0.03787800616666667,0.039938184499999994,both
1970-02-01 11:41:05.000,1649.0,6.6225114000000005,-7.1644093600000005,-0.59214594,0.0,1.0,E,-0.0409769944,0.028894497439999993,0.0011976236000000005,both
1970-02-01 11:41:05.250,1649.0,6.70774512,-7.02027818,-0.708504138,0.0,1.0,E,0.0308218284,-0.05547444380000001,0.0020498346600000003,both
1970-02-01 11:41:05.500,1649.0,6.78005008,-6.981492059999999,-0.850240874,0.0,1.0,E,-0.03735615988,0.005457882,0.01930871684,both
