timestamp,id,Acceleration x (m/s^2),Acceleration y (m/s^2),Acceleration z (m/s^2),phone,watch,activity,Gyroscope x (m/s^2),Gyroscope y (m/s^2),Gyroscope z (m/s^2),_merge
1970-01-02 22:29:44.000,1640,7.211404300000001,-0.23950197,-7.9945755,0,1,D,,,,left_only
1970-01-02 22:29:44.250,1640,6.504673749999999,1.0400372820833335,-7.99956515,0,1,D,-0.4992539166666667,0.23222765,0.083800802,both
1970-01-02 22:29:44.500,1640,6.985166876923079,2.0869832692307693,-6.953110507692307,0,1,D,-0.07297061466666666,0.17328301366666665,-0.3421274366666667,both
1970-01-02 22:29:44.750,1640,6.5481832,1.7649298699999998,-7.277865891666667,0,1,D,0.18730899833333337,-0.20683884666666666,-0.016334049999999992,both
1970-01-02 22:29:45.000,1640,6.496490783333335,1.4509827166666662,-7.591413916666667,0,1,D,0.06728920316666667,0.014203527000000002,0.0550386625,both
1970-01-02 22:29:45.250,1640,6.6231504615384615,1.3553969153846153,-7.5109659076923085,0,1,D,-0.04824126314285714,-0.021000927285714288,0.0640680473857143,both
1970-01-02 22:29:45.500,1640,6.526029424999998,1.4382092916666664,-7.532536399999999,0,1,D,-0.018464583666666666,-0.007101762833333334,0.012072997166666667,both
1970-01-02 22:29:45.750,1640,6.491055876923077,1.424852453846154,-7.555550084615385,0,1,D,-0.0039059697,-0.0007101762666666664,0.0074568514499999995,both
1970-01-02 22:29:46.000,1640,6.4960914999999995,1.4348163500000002,-7.553093633333333,0,1,D,0.00053263225,0.00230807305,0.0024856171166666666,both
1970-01-02 22:29:46.250,1640,6.500083192307693,1.4320375153846154,-7.5494704384615385,0,1,D,0.00030436129999999995,0.001978348342857143,0.0021305289428571426,both
1970-01-02 22:29:46.500,1640,6.500881583333334,1.4332196833333335,-7.548104058333333,0,1,D,0.0015978967333333336,0.003728425666666667,0.0,both
1970-01-02 22:29:46.750,1640,6.501679941666666,1.4328205083333334,-7.54910195,0,1,D,0.00266316125,0.0035508816000000003,0.0,both
1970-01-02 22:29:47.000,1640,6.499714838461538,1.4268790153846154,-7.548917676923076,0,1,D,0.00372842565,0.0026631611833333336,-0.0007101763333333333,both
1970-01-02 22:29:47.250,1640,6.5024783416666665,1.4314234083333333,-7.540919008333332,0,1,D,0.0023080730666666664,0.003373337533333333,-0.0003550881666666667,both
1970-01-02 22:29:47.500,1640,6.503767938461539,1.430563653846154,-7.545233107692307,0,1,D,0.0025870708999999998,0.002739251514285714,-0.0003043612857142857,both
1970-01-02 22:29:47.750,1640,6.508465824999999,1.4290284000000002,-7.547505283333333,0,1,D,0.0019529848999999997,0.003373337516666667,0.00017754408333333334,both
1970-01-02 22:29:48.000,1640,6.513255858333333,1.4250366833333334,-7.535929333333335,0,1,D,0.0017754408,0.004083513833333333,0.00053263225,both
1970-01-02 22:29:48.250,1640,6.512795315384614,1.419693930769231,-7.541916869230769,0,1,D,0.0031957934666666673,0.004793690066666668,-0.00053263225,both
1970-01-02 22:29:48.500,1640,6.688691033333334,1.3980927166666666,-7.463679533333333,0,1,D,0.025388803283333334,0.040480049500000004,-0.03444355026666667,both
1970-01-02 22:29:48.750,1640,6.508189461538462,1.5469984538461539,-7.4752247615384615,0,1,D,-0.0448932905,0.017957315042857136,-0.08613424028571427,both
1970-01-02 22:29:49.000,1640,6.438810708333334,1.7016614416666667,-7.527147475,0,1,D,-0.21376306999999997,-0.10386328683333333,0.05486112016666666,both
1970-01-02 22:29:49.250,1640,6.508066708333332,2.2397425249999996,-7.410989150000002,0,1,D,0.04403092716666666,0.03337828733333333,-0.11025487183333332,both
1970-01-02 22:29:49.500,1640,6.375542276923076,1.992656330769231,-7.510965869230769,0,1,D,0.01668914333333334,0.027341787283333332,0.03266811226666667,both
1970-01-02 22:29:49.750,1640,6.701863658333333,1.8844813083333334,-7.3038119083333335,0,1,D,0.02450108325,0.0859313325,0.08735168491666667,both
1970-01-02 22:29:50.000,1640,6.5743288230769235,1.8135825615384613,-7.405216446153847,0,1,D,0.030131766857142857,0.0021305285,-0.022066192071428573,both
1970-01-02 22:29:50.250,1640,6.642187858333334,1.7966638999999998,-7.362290375000001,0,1,D,-0.007634395499999999,-0.010652643833333334,0.017399319,both
1970-01-02 22:29:50.500,1640,6.6276181166666674,1.7794995999999996,-7.372069933333333,0,1,D,0.002485617166666667,0.00213052895,-0.0012428085000000001,both
1970-01-02 22:29:50.750,1640,6.629045853846154,1.7955278076923078,-7.365238099999999,0,1,D,0.0014203526666666667,0.0005326322500000001,0.0014203526000000001,both
1970-01-02 22:29:51.000,1640,6.633406024999999,1.7984601833333336,-7.369076200000001,0,1,D,-0.0010652644999999997,-0.00017754406666666665,0.0023080729666666664,both
1970-01-02 22:29:51.250,1640,6.623518907692307,1.7903692999999998,-7.374633838461539,0,1,D,0.002739251471428572,0.0022827096285714284,0.0006087225428571428,both
1970-01-02 22:29:51.500,1640,6.627418375,1.7848883833333333,-7.371471249999999,0,1,D,0.003195793416666667,0.0039059698000000003,0.0005326322333333333,both
1970-01-02 22:29:51.750,1640,6.630703861538461,1.7842896153846157,-7.364132584615384,0,1,D,0.001775440816666667,0.00301824935,-0.0003550881666666667,both
1970-01-02 22:29:52.000,1640,6.628615991666666,1.7862854666666668,-7.371072058333334,0,1,D,0.0024856171333333334,0.0028407052833333336,0.0,both
1970-01-02 22:29:52.250,1640,6.6318093,1.7890796416666663,-7.368078283333333,0,1,D,0.0015978967333333336,0.0026631612166666666,-0.0007101763333333333,both
1970-01-02 22:29:52.500,1640,6.633099046153847,1.7865004076923077,-7.365606576923076,0,1,D,0.0027392515285714287,0.0035001547000000004,-0.0006087225714285714,both
1970-01-02 22:29:52.750,1640,6.640591074999999,1.7848883833333336,-7.361092783333333,0,1,D,0.0030182493499999997,0.004616146099999999,-0.00053263225,both
1970-01-02 22:29:53.000,1640,6.643968676923076,1.7866846692307692,-7.359158253846153,0,1,D,0.003373337566666667,0.003550881583333334,-0.0010652645,both
1970-01-02 22:29:53.250,1640,6.646977841666666,1.7810962583333332,-7.359296516666666,0,1,D,0.0031957934333333333,0.003550881583333334,-0.0007101763333333333,both
1970-01-02 22:29:53.500,1640,6.646179425,1.7840900583333335,-7.350315216666665,0,1,D,0.002840705283333333,0.0024856171333333334,-0.00053263225,both
1970-01-02 22:29:53.750,1640,6.645810992307692,1.7809734461538465,-7.35878986923077,0,1,D,0.0025870708714285716,0.0018261677,0.00045654192857142855,both
1970-01-02 22:29:54.000,1640,6.6417885666666665,1.7842896083333333,-7.354506441666666,0,1,D,0.0030182494000000003,0.003195793383333333,-0.00053263225,both
1970-01-02 22:29:54.250,1640,6.645258269230769,1.7835526923076925,-7.356579146153846,0,1,D,0.0023080730666666664,0.002130528983333333,-0.0003550881666666667,both
1970-01-02 22:29:54.500,1640,6.644982041666668,1.7812958583333336,-7.359096966666667,0,1,D,0.0023080730499999997,0.0019529848999999997,-0.0007101763333333333,both
1970-01-02 22:29:54.750,1640,6.642187841666668,1.7806970999999996,-7.355304825,0,1,D,0.0024856171333333334,0.00301824935,-0.00159789675,both
1970-01-02 22:29:55.000,1640,6.641757823076923,1.783921153846154,-7.360263692307694,0,1,D,0.002282709614285714,0.0010652645,-0.0007609032142857142,both
1970-01-02 22:29:55.250,1640,6.645381066666666,1.7844892333333335,-7.360893183333334,0,1,D,0.0024856171333333334,0.00230807305,0.0,both
1970-01-02 22:29:55.500,1640,6.645074176923076,1.7815261384615384,-7.354552453846154,0,1,D,0.002130528966666667,0.0030182493999999995,0.00017754408333333334,both
1970-01-02 22:29:55.750,1640,6.6455807249999985,1.782692941666667,-7.3549055999999995,0,1,D,0.001775440816666667,0.002130528966666667,-0.0003550881666666667,both
1970-01-02 22:29:56.000,1640,6.638794883333333,1.7779029333333334,-7.362889050000001,0,1,D,0.0053263224,0.0085221155,0.0,both
1970-01-02 22:29:56.250,1640,6.668655838461538,1.770103746153846,-7.338524376923077,0,1,D,0.0018261676571428573,0.0033479739571428573,0.0007609032142857142,both
1970-01-02 22:29:56.500,1640,6.658553783333332,1.776106633333333,-7.339936783333332,0,1,D,0.0007101763166666667,0.000710176333333333,-0.00017754408333333334,both
1970-01-02 22:29:56.750,1640,6.657601846153846,1.7713933692307695,-7.352341699999998,0,1,D,0.0008877204166666666,0.0015978967166666667,0.00017754408333333334,both
1970-01-02 22:29:57.000,1640,6.654162924999999,1.7789008,-7.343529391666667,0,1,D,0.001775440816666667,0.0019529848833333332,-0.00017754408333333334,both
1970-01-02 22:29:57.250,1640,6.655943823076923,1.7769203153846154,-7.350315146153847,0,1,D,0.001978348342857143,0.0013696257714285716,0.0006087225714285714,both
1970-01-02 22:29:57.500,1640,6.650770075,1.7783020666666667,-7.354706058333335,0,1,D,0.002840705316666666,0.0014203526333333334,0.0,both
1970-01-02 22:29:57.750,1640,6.653364449999999,1.7793000250000002,-7.344726808333333,0,1,D,0.00213052895,0.002485617166666667,-0.00017754408333333334,both
1970-01-02 22:29:58.000,1640,6.654469915384615,1.775078015384616,-7.352526069230769,0,1,D,0.002130528983333333,0.0019529848833333332,0.0003550881666666667,both
1970-01-02 22:29:58.250,1640,6.658952991666667,1.7739111999999997,-7.355703966666666,0,1,D,0.00301824935,0.0019529849166666667,0.0003550881666666667,both
1970-01-02 22:29:58.500,1640,6.6568648538461535,1.7732356769230768,-7.349762507692308,0,1,D,0.0016739870571428571,0.002587070857142857,0.0009130838428571428,both
1970-01-02 22:29:58.750,1640,6.656358366666666,1.771915325,-7.354506391666668,0,1,D,0.00159789675,0.0010652645,-0.00053263225,both
1970-01-02 22:29:59.000,1640,6.648175333333332,1.7759070583333336,-7.356103249999999,0,1,D,0.002130528983333333,0.0019529848166666669,-0.00017754408333333334,both
1970-01-02 22:29:59.250,1640,6.6529960615384605,1.7721302769230767,-7.351420561538461,0,1,D,0.0023080730666666664,0.0021305289666666664,0.00017754408333333334,both
1970-01-02 22:29:59.500,1640,6.650171108333333,1.7743103666666666,-7.352111525000001,0,1,D,0.0024856171333333334,0.0012428085666666665,-0.0003550881666666667,both
1970-01-02 22:29:59.750,1640,6.652259030769231,1.7765518615384615,-7.348472923076923,0,1,D,0.0015218064,0.0021305289714285713,0.00045654192857142855,both
1970-01-02 22:30:00.000,1640,6.655759616666665,1.7723145249999999,-7.353708141666668,0,1,D,0.002130528983333333,0.002130528966666667,-0.00035508815000000004,both
1970-01-02 22:30:00.250,1640,6.6553604333333345,1.7727136916666668,-7.352111383333333,0,1,D,0.0021305289999999995,0.00053263225,0.0,both
1970-01-02 22:30:00.500,1640,6.650785269230768,1.7743410692307693,-7.350499446153847,0,1,D,0.0023080730666666664,0.002840705283333333,0.0003550881666666667,both
1970-01-02 22:30:00.750,1640,6.652167125000001,1.7733124166666663,-7.356103116666667,0,1,D,0.0024856171499999997,0.00142035265,0.0003550881666666667,both
1970-01-02 22:30:01.000,1640,6.6559438538461535,1.7723145153846152,-7.355842161538461,0,1,D,0.002587070885714286,0.001673987057142857,0.0003043612857142857,both
1970-01-02 22:30:01.250,1640,6.661747216666668,1.7701190666666662,-7.349916033333334,0,1,D,0.00230807305,0.003728425649999999,0.0,both
1970-01-02 22:30:01.500,1640,6.654562066666666,1.77171575,-7.350913833333333,0,1,D,0.00142035265,0.0008877203833333333,-0.00017754408333333334,both
1970-01-02 22:30:01.750,1640,6.6522590692307695,1.771946053846154,-7.354552523076923,0,1,D,0.002130528983333333,0.001775440816666667,-0.0007101763333333333,both
1970-01-02 22:30:02.000,1640,6.65995085,1.7683228166666665,-7.346123891666667,0,1,D,0.003018249333333334,0.00550386635,-0.00053263225,both
1970-01-02 22:30:02.250,1640,6.66331316923077,1.7723145230769233,-7.349762453846154,0,1,D,0.0028914321285714284,0.0021305289999999995,-0.0007609032142857142,both
1970-01-02 22:30:02.500,1640,6.665938416666666,1.7665265583333332,-7.348319308333334,0,1,D,0.0056814104,0.002663161183333333,-0.0031957934833333336,both
1970-01-02 22:30:02.750,1640,6.659751324999999,1.7691211833333336,-7.350115674999999,0,1,D,0.0040835138500000005,0.0028407053,-0.0003550881666666667,both
1970-01-02 22:30:03.000,1640,6.668471661538461,1.7618132923076923,-7.3446039615384615,0,1,D,0.004438601933333334,0.0031957934666666673,-0.00053263225,both
1970-01-02 22:30:03.250,1640,6.679909325000001,1.763732391666667,-7.339138466666667,0,1,D,0.009942468166666668,0.009942468216666667,-0.0042610577833333335,both
1970-01-02 22:30:03.500,1640,6.680262523076921,1.737863084615385,-7.3232331,0,1,D,0.012478812257142858,0.010804825014285714,-0.002434890228571428,both
1970-01-02 22:30:03.750,1640,6.704059166666668,1.7509589333333333,-7.321774541666666,0,1,D,-0.00124280855,0.0012428086166666667,0.0010652644833333332,both
1970-01-02 22:30:04.000,1640,6.690395284615386,1.7387842615384614,-7.317521953846153,0,1,D,0.00461614605,0.006036498666666667,0.0012428085666666667,both
1970-01-02 22:30:04.250,1640,6.706853308333333,1.7333954583333335,-7.321375358333333,0,1,D,0.0051487783,0.0031957933666666664,0.0014203526499999997,both
1970-01-02 22:30:04.500,1640,6.714437591666666,1.7248133083333335,-7.309799575,0,1,D,0.0037284256333333337,0.00213052895,0.00053263225,both
1970-01-02 22:30:04.750,1640,6.704396861538462,1.7273618384615388,-7.314021469230771,0,1,D,0.0038045160285714286,0.003652335371428571,0.0006087225571428571,both
1970-01-02 22:30:05.000,1640,6.70785125,1.7220190916666667,-7.314389958333334,0,1,D,0.002840705316666667,0.0014203526666666667,-0.00053263225,both
1970-01-02 22:30:05.250,1640,6.704581130769232,1.726256446153846,-7.31494263076923,0,1,D,0.0019529849000000001,0.00053263225,-0.00053263225,both
1970-01-02 22:30:05.500,1640,6.709847066666666,1.7280066583333336,-7.315986666666666,0,1,D,0.00142035265,0.003018249316666667,1.66666666723501e-11,both
1970-01-02 22:30:05.750,1640,6.708449975000001,1.7242145500000001,-7.315587475000001,0,1,D,0.0028407052833333336,0.0030182493666666664,0.0,both
1970-01-02 22:30:06.000,1640,6.712871515384615,1.7258879692307691,-7.310152546153845,0,1,D,0.002130528942857143,0.0024348902285714286,0.00045654192857142855,both
1970-01-02 22:30:06.250,1640,6.706254558333334,1.7264100000000002,-7.311595841666666,0,1,D,0.0019529848833333334,0.0014203526499999997,-0.00017754408333333334,both
1970-01-02 22:30:06.500,1640,6.710660792307693,1.7233087230769233,-7.307020630769229,0,1,D,0.0017754408333333332,0.0007101763166666667,0.0,both
1970-01-02 22:30:06.750,1640,6.703859558333334,1.7234161749999999,-7.312394058333333,0,1,D,0.00053263225,0.00017754399999999997,0.0007101763166666667,both
1970-01-02 22:30:07.000,1640,6.695876124999999,1.7248133,-7.324967991666667,0,1,D,1.6666666600069952e-11,-0.0021305289333333334,0.0003550881666666667,both
1970-01-02 22:30:07.250,1640,6.699606876923078,1.7317834384615387,-7.3199169230769225,0,1,D,-0.00045654187142857164,-0.0013696257142857143,0.0013696257714285714,both
1970-01-02 22:30:07.500,1640,6.678312666666667,1.7343933666666667,-7.338140625,0,1,D,-0.00639158675,-0.0055038665,0.003550881566666666,both
1970-01-02 22:30:07.750,1640,6.676577892307693,1.7470747076923074,-7.340919353846153,0,1,D,0.0007101763166666667,-0.002130528983333333,-0.0015978967166666667,both
1970-01-02 22:30:08.000,1640,6.682304408333333,1.7483643083333333,-7.335146666666666,0,1,D,0.004438602016666667,0.006746674833333334,-0.0007101763333333333,both
1970-01-02 22:30:08.250,1640,6.686695191666668,1.7433746916666666,-7.327163341666668,0,1,D,0.00035508818333333326,0.0031957934166666666,0.0007101763333333333,both
1970-01-02 22:30:08.500,1640,6.679525576923077,1.7421004461538456,-7.337971684615384,0,1,D,0.0021305289857142854,0.0006087225714285714,0.00015218065714285713,both
1970-01-02 22:30:08.750,1640,6.675718166666666,1.7475659916666668,-7.341333883333333,0,1,D,0.0019529848500000003,0.002130528966666667,-0.0003550881666666667,both
1970-01-02 22:30:09.000,1640,6.680999476923077,1.7428373615384614,-7.331155092307692,0,1,D,0.001775440816666667,0.0019529849000000001,-0.0003550881666666667,both
1970-01-02 22:30:09.250,1640,6.677913566666667,1.7421771999999998,-7.337142624999999,0,1,D,0.0017754408,0.0012428085666666667,0.0,both
1970-01-02 22:30:09.500,1640,6.672893192307693,1.753522823076923,-7.339998153846154,0,1,D,-0.0006087225285714285,0.0004565419714285713,0.0018261676571428571,both
1970-01-02 22:30:09.750,1640,6.673323133333334,1.7445722416666667,-7.338938791666667,0,1,D,0.0015978967333333332,0.0015978967333333332,-0.0007101763000000001,both
1970-01-02 22:30:10.000,1640,6.6785123,1.745769725,-7.335146766666667,0,1,D,0.0017754407666666667,0.0024856170666666664,0.001952984833333334,both
1970-01-02 22:30:10.250,1640,6.672708907692306,1.7452323923076927,-7.338892892307692,0,1,D,0.0012428084833333334,0.0010652645666666667,-0.0001775441166666666,both
1970-01-02 22:30:10.500,1640,6.671327191666665,1.7499610166666664,-7.345325658333334,0,1,D,0.0014203526000000001,0.00035508806666666664,0.0007101763333333333,both
1970-01-02 22:30:10.750,1640,6.675103938461538,1.7522332230769229,-7.3370504769230775,0,1,D,0.001521806385714286,0.0015218063428571425,-0.001369625757142857,both
1970-01-02 22:30:11.000,1640,6.66514015,1.7477655916666668,-7.3405355583333325,0,1,D,0.001775440816666667,-0.0003550881666666667,-0.00017754408333333334,both
1970-01-02 22:30:11.250,1640,6.671526841666668,1.7495618583333334,-7.341533449999999,0,1,D,0.0028407053,0.0019529848166666669,-0.00053263225,both
1970-01-02 22:30:11.500,1640,6.659075792307693,1.7465219923076925,-7.347551707692308,0,1,D,0.001775440816666667,0.0019529849000000001,0.00053263225,both
1970-01-02 22:30:11.750,1640,6.655160849999999,1.746368483333333,-7.3561031166666675,0,1,D,0.002130528983333333,-0.00124280855,-0.0007101763333333333,both
1970-01-02 22:30:12.000,1640,6.662391930769231,1.759970976923077,-7.359158353846154,0,1,D,-0.004717599714285714,-0.0038045159714285713,-0.009891741257142856,both
1970-01-02 22:30:12.250,1640,6.6383956333333325,1.7982605666666667,-7.3610928583333335,0,1,D,-0.007811939383333332,-0.006214042666666666,-0.013315805583333333,both
1970-01-02 22:30:12.500,1640,6.5869027749999995,1.8563398083333331,-7.386440133333334,0,1,D,-0.033910919000000005,-0.016866687116666664,0.006036498583333333,both
1970-01-02 22:30:12.750,1640,6.633283199999998,1.8734580538461536,-7.363579946153847,0,1,D,0.007811939899999999,0.008522115666666667,-0.002840705366666667,both
1970-01-02 22:30:13.000,1640,6.6170400833333325,1.9110260666666667,-7.348319383333333,0,1,D,0.0239684505,0.021482833833333336,0.009942468166666664,both
1970-01-02 22:30:13.250,1640,6.675840799999999,1.6947527461538459,-7.350315238461538,0,1,D,0.01719641207142857,0.018566037528571427,0.017500773471428574,both
1970-01-02 22:30:13.500,1640,6.678711908333335,1.7415784333333333,-7.341733141666666,0,1,D,0.009764924266666667,0.0037284256,-0.005681410533333334,both
1970-01-02 22:30:13.750,1640,6.690287825000001,1.7565473166666665,-7.325965775,0,1,D,0.0017754407000000001,0.0028407052833333336,-0.0008877203666666668,both
1970-01-02 22:30:14.000,1640,6.685236784615385,1.748364323076923,-7.325075399999999,0,1,D,0.0012428085666666665,0.0023080730333333334,0.00017754406666666673,both
1970-01-02 22:30:14.250,1640,6.682304425000001,1.7509589250000002,-7.328759991666666,0,1,D,0.00301824935,0.0026631612166666666,0.00017754406666666665,both
1970-01-02 22:30:14.500,1640,6.682289023076923,1.7441269923076925,-7.3309708538461535,0,1,D,0.00030436127142857147,0.0009130838,0.0041088772,both
1970-01-02 22:30:14.750,1640,6.683501941666667,1.7451709916666667,-7.3255667,0,1,D,0.0023080730333333334,0.0012428085666666667,0.00017754408333333334,both
1970-01-02 22:30:15.000,1640,6.687892816666667,1.7491626749999998,-7.331953383333333,0,1,D,0.0026631612166666666,0.002130528966666667,0.0,both
1970-01-02 22:30:15.250,1640,6.683578730769232,1.744126992307692,-7.327654653846154,0,1,D,0.00142035265,0.0003550881666666667,-0.0003550881666666667,both
1970-01-02 22:30:15.500,1640,6.684100766666667,1.7415784416666664,-7.332951300000001,0,1,D,0.002130528983333333,0.0017754408166666665,0.0,both
1970-01-02 22:30:15.750,1640,6.680262546153847,1.746153530769231,-7.332997392307693,0,1,D,0.0016739870714285712,0.0024348902571428572,0.00015218064285714284,both
1970-01-02 22:30:16.000,1640,6.688691025,1.7453705500000003,-7.336743441666665,0,1,D,0.00656913075,0.0026631610333333333,0.009232291966666667,both
1970-01-02 22:30:16.250,1640,6.7154508153846155,1.7082016999999998,-7.311073769230769,0,1,D,0.006036498849999999,0.01491370225,0.002840705233333333,both
1970-01-02 22:30:16.500,1640,6.693880308333333,1.7042560666666668,-7.3193796166666685,0,1,D,0.0033733373666666668,0.00674667495,0.0008877203166666668,both
1970-01-02 22:30:16.750,1640,6.714437525,1.722817466666667,-7.311595783333334,0,1,D,-0.0017754407500000003,-0.001775440816666667,-0.005326322333333334,both
1970-01-02 22:30:17.000,1640,6.700159546153848,1.7260722307692307,-7.315126946153847,0,1,D,0.00045654192857142855,-0.0022827096142857143,-0.0012174451428571427,both
1970-01-02 22:30:17.250,1640,6.706853316666667,1.7421772166666667,-7.325965808333332,0,1,D,0.0030182494000000003,0.0031957934833333336,0.0012428085833333334,both
1970-01-02 22:30:17.500,1640,6.713240069230769,1.6827776538461536,-7.296519376923078,0,1,D,0.023435818416666667,0.018109496000000003,0.01615651091666667,both
1970-01-02 22:30:17.750,1640,6.720824166666667,1.6737195416666666,-7.321774550000001,0,1,D,-0.008167027833333333,-0.016689143416666663,-0.007101763333333334,both
1970-01-02 22:30:18.000,1640,6.672125516666667,1.6966718416666666,-7.345525250000001,0,1,D,-0.011185276449999998,-0.020240024666666665,0.0012428085000000001,both
1970-01-02 22:30:18.250,1640,6.667734738461539,1.7332572769230767,-7.355105461538461,0,1,D,0.0010652643857142856,-4.285714293371181e-11,-0.007152490428571428,both
1970-01-02 22:30:18.500,1640,6.645580699999999,1.715831991666667,-7.372668841666667,0,1,D,0.0017754407500000003,0.0017754408333333336,0.0035508815000000003,both
1970-01-02 22:30:18.750,1640,6.648758792307692,1.719439846153846,-7.368185800000001,0,1,D,0.0007101762999999999,0.0030182492500000005,-0.0003550881666666667,both
1970-01-02 22:30:19.000,1640,6.665738816666665,1.72561165,-7.356901558333333,0,1,D,0.0017754407666666667,0.0031957933666666664,-0.0026631612,both
1970-01-02 22:30:19.250,1640,6.671526758333333,1.736389225,-7.351911941666667,0,1,D,0.003195793383333334,0.008522115733333334,-0.002485617166666667,both
1970-01-02 22:30:19.500,1640,6.663128907692309,1.7231245076923078,-7.351052153846153,0,1,D,0.0038045159571428572,0.006087225428571428,-2.8571428395308366e-11,both
1970-01-02 22:30:19.750,1640,6.675718141666667,1.7218195083333334,-7.342132208333332,0,1,D,0.005326322283333333,0.010297556549999998,0.00017754408333333334,both
1970-01-02 22:30:20.000,1640,6.6990541,1.7209137153846155,-7.3278389,0,1,D,0.002840705283333333,0.00710176305,0.0023080730333333334,both
1970-01-02 22:30:20.250,1640,6.7016640999999995,1.7084473583333335,-7.324169641666667,0,1,D,-0.00017754411666666674,-0.002308072933333333,0.003728425683333333,both
1970-01-02 22:30:20.500,1640,6.682504025,1.7080481583333336,-7.335346374999999,0,1,D,0.002130528983333333,0.0007101762166666667,-0.0015978967333333332,both
1970-01-02 22:30:20.750,1640,6.695922153846154,1.719808330769231,-7.322311876923077,0,1,D,0.0016739870571428571,0.0033479741,-0.002130529,both
1970-01-02 22:30:21.000,1640,6.704657891666667,1.7166303000000003,-7.320976241666668,0,1,D,0.004261057933333334,0.0065691308,-0.0005326322333333333,both
1970-01-02 22:30:21.250,1640,6.7207935153846154,1.7398896384615385,-7.305915307692308,0,1,D,-0.015801422733333334,0.0047936899166666665,0.008344571516666666,both
1970-01-02 22:30:21.500,1640,6.636200258333333,1.7024598083333335,-7.365084491666667,0,1,D,0.015978967000000007,0.004438601750000001,-0.007989483166666667,both
1970-01-02 22:30:21.750,1640,6.759850823076922,1.727361853846154,-7.277359292307692,0,1,D,-0.0006087230999999993,0.0016739869285714289,0.006695948128571427,both
1970-01-02 22:30:22.000,1640,6.7224209,1.7250129083333336,-7.3042111583333345,0,1,D,-0.008344571833333333,-0.0060364987,0.006569130883333333,both
1970-01-02 22:30:22.250,1640,6.685298141666667,1.7325971416666668,-7.326764275000001,0,1,D,0.0023080729666666664,-0.0094098363,-0.020950201166666668,both
1970-01-02 22:30:22.500,1640,6.682104738461539,1.7586813384615387,-7.3333658999999995,0,1,D,0.004793690166666666,0.008522115166666665,0.003550881633333334,both
1970-01-02 22:30:22.750,1640,6.690686941666667,1.7244141333333332,-7.326564608333334,0,1,D,-0.0014203525666666664,0.0056814107833333335,0.010120012333333333,both
1970-01-02 22:30:23.000,1640,6.683210207692308,1.7549966846153846,-7.331339384615385,0,1,D,0.00015218064285714279,-0.005935045014285713,-0.006695947785714285,both
1970-01-02 22:30:23.250,1640,6.682104891666667,1.7505597666666664,-7.331155075000002,0,1,D,0.0033733375000000003,0.007101762966666667,0.0014203526333333334,both
1970-01-02 22:30:23.500,1640,6.698470775,1.7044556416666665,-7.324967950000001,0,1,D,0.00017754413333333335,-0.0007101763000000001,-0.0010652645166666667,both
1970-01-02 22:30:23.750,1640,6.668655869230769,1.821136092307692,-7.338340169230768,0,1,D,-0.0007101764999999999,-0.0042610573333333335,0.0014203525833333336,both
1970-01-02 22:30:24.000,1640,6.657356383333333,1.7296033583333335,-7.365683283333333,0,1,D,0.001775440783333333,0.0003550880833333338,0.002308072866666667,both
1970-01-02 22:30:24.250,1640,6.671050892307692,1.7417319615384612,-7.340550815384615,0,1,D,0.003956696585714285,0.003652335342857143,0.0015218062285714293,both
1970-01-02 22:30:24.500,1640,6.692483141666667,1.7325971249999998,-7.324369233333335,0,1,D,0.0026631611500000005,0.008167027283333333,0.0008877204,both
1970-01-02 22:30:24.750,1640,6.682903091666667,1.7449713833333336,-7.336743458333335,0,1,D,0.001420352616666667,0.005503866366666666,0.0023080729833333336,both
1970-01-02 22:30:25.000,1640,6.700343753846154,1.7328888307692307,-7.319732646153847,0,1,D,0.002663161216666666,0.003018249383333333,0.0005326322333333333,both
1970-01-02 22:30:25.250,1640,6.686096541666667,1.7315991916666666,-7.326165433333334,0,1,D,0.005326322333333334,0.009232292033333332,-0.0001775440833333334,both
1970-01-02 22:30:25.500,1640,6.715450907692309,1.7435742923076925,-7.306099507692307,0,1,D,0.002130528942857143,0.004108877285714287,0.0004565419,both
1970-01-02 22:30:25.750,1640,6.704657916666666,1.735191725,-7.317583316666667,0,1,D,0.00053263225,0.00142035265,0.0003550881833333333,both
1970-01-02 22:30:26.000,1640,6.716832566666667,1.7383851000000001,-7.301217333333334,0,1,D,0.0012428085833333332,0.004616145966666666,1.6666666744630243e-11,both
1970-01-02 22:30:26.250,1640,6.706791892307693,1.7360207538461538,-7.315495376923077,0,1,D,0.0026631612166666666,0.00017754408333333334,-0.0003550881666666667,both
1970-01-02 22:30:26.500,1640,6.707651675,1.7387842583333335,-7.314589558333335,0,1,D,0.002130528983333333,0.0008877204,0.0008877204166666666,both
1970-01-02 22:30:26.750,1640,6.704765338461541,1.7374946461538463,-7.315311146153846,0,1,D,0.0021305289714285717,0.0016739870571428571,0.0,both
1970-01-02 22:30:27.000,1640,6.708449999999999,1.7361896500000003,-7.312992858333332,0,1,D,0.0017754408333333332,0.00159789675,0.0,both
1970-01-02 22:30:27.250,1640,6.708250416666666,1.7393830000000003,-7.310198683333334,0,1,D,0.0019529849000000001,0.0010652645,0.00053263225,both
1970-01-02 22:30:27.500,1640,6.697764615384617,1.7350996076923075,-7.319732738461538,0,1,D,0.0019529849000000001,0.00017754409999999992,0.0003550881666666667,both
1970-01-02 22:30:27.750,1640,6.6986704166666655,1.7385846583333333,-7.320577025000001,0,1,D,0.00159789675,0.0015978967166666667,0.0,both
1970-01-02 22:30:28.000,1640,6.699791107692308,1.7367576999999998,-7.321206538461539,0,1,D,0.002587070914285714,0.0016739870571428571,0.0,both
1970-01-02 22:30:28.250,1640,6.695277441666668,1.7349921333333336,-7.317782941666668,0,1,D,0.0019529848999999995,0.00142035265,-0.0003550881666666667,both
1970-01-02 22:30:28.500,1640,6.6957379999999995,1.7338100076923078,-7.320285330769232,0,1,D,0.0019529849000000001,0.0030182493499999997,-0.00017754408333333334,both
1970-01-02 22:30:28.750,1640,6.695876200000002,1.7355909083333332,-7.321974133333334,0,1,D,0.003018249366666667,0.0014203526666666667,0.0,both
1970-01-02 22:30:29.000,1640,6.701464533333333,1.73738715,-7.320976258333332,0,1,D,0.0024856171333333334,0.00284070525,0.0,both
1970-01-02 22:30:29.250,1640,6.697395984615385,1.7376788615384615,-7.318443053846154,0,1,D,0.0022827095999999997,0.002130528957142857,-0.00045654192857142855,both
1970-01-02 22:30:29.500,1640,6.699468700000001,1.7369879583333334,-7.3209762750000005,0,1,D,0.00230807305,0.0026631612,-0.0003550881666666667,both
1970-01-02 22:30:29.750,1640,6.699791130769231,1.7358365076923077,-7.3224962,0,1,D,0.0017754408333333332,0.0026631612,-0.00017754408333333334,both
1970-01-02 22:30:30.000,1640,6.702063308333333,1.736588816666667,-7.319778750000002,0,1,D,0.0021305289666666664,0.0019529848833333332,-0.00017754408333333334,both
1970-01-02 22:30:30.250,1640,6.702662058333334,1.7379858999999998,-7.315986666666667,0,1,D,0.0019529848999999995,0.0023080730499999997,-0.00017754408333333334,both
1970-01-02 22:30:30.500,1640,6.696474953846153,1.7354680846153845,-7.3234173615384615,0,1,D,0.0022827096285714284,0.0022827096428571425,-0.00015218064285714284,both
1970-01-02 22:30:30.750,1640,6.701863708333334,1.7387842666666666,-7.316984566666668,0,1,D,0.0019529849000000001,0.0012428085833333332,0.0,both
1970-01-02 22:30:31.000,1640,6.699606853846155,1.739152723076923,-7.322496161538462,0,1,D,0.00230807305,0.0015978967333333332,0.00053263225,both
1970-01-02 22:30:31.250,1640,6.6986702833333345,1.736788383333333,-7.325167525000001,0,1,D,0.00230807305,0.0021305289,0.00017754408333333334,both
1970-01-02 22:30:31.500,1640,6.70066625,1.7343933916666667,-7.322373358333334,0,1,D,0.0023080730666666664,0.0023080730333333334,0.00017754408333333334,both
1970-01-02 22:30:31.750,1640,6.700712261538462,1.7325203615384615,-7.319548484615385,0,1,D,0.0021305289857142854,0.0024348902714285718,-0.0006087225714285714,both
1970-01-02 22:30:32.000,1640,6.697672391666668,1.7359900666666663,-7.31957915,0,1,D,0.002130528983333333,0.0015978967166666667,-0.00053263225,both
1970-01-02 22:30:32.250,1640,6.696474846153848,1.7334415153846159,-7.318258869230769,0,1,D,0.0021305289999999995,0.0024856171333333334,-0.0003550881666666667,both
1970-01-02 22:30:32.500,1640,6.699867816666668,1.7381855166666667,-7.321175858333334,0,1,D,0.002130528983333333,0.002130528983333333,-0.0003550881666666667,both
1970-01-02 22:30:32.750,1640,6.702262833333332,1.7375867749999998,-7.324768350000002,0,1,D,0.0026631612,0.0023080730166666666,0.00053263225,both
1970-01-02 22:30:33.000,1640,6.6975803153846165,1.7386000076923078,-7.319179953846155,0,1,D,0.0018261677,0.0021305289857142854,-0.00045654192857142855,both
1970-01-02 22:30:33.250,1640,6.697073583333332,1.7447718083333335,-7.324768349999999,0,1,D,0.002308073083333333,0.002130528916666666,0.00017754406666666665,both
1970-01-02 22:30:33.500,1640,6.712134638461539,1.7290199384615386,-7.316048038461537,0,1,D,0.00213052895,0.0035508816,0.0007101763166666667,both
1970-01-02 22:30:33.750,1640,6.702662008333334,1.7361896416666667,-7.321375408333334,0,1,D,0.0024856171166666666,0.0015978967333333336,0.0005326322333333333,both
1970-01-02 22:30:34.000,1640,6.700267083333333,1.7325971083333334,-7.317583308333333,0,1,D,0.0019529848833333334,0.0017754408166666665,0.00035508815,both
1970-01-02 22:30:34.250,1640,6.698685646153846,1.7380473153846152,-7.32618076923077,0,1,D,0.0019783483285714287,0.0016739870142857144,0.00015218064285714284,both
1970-01-02 22:30:34.500,1640,6.704059141666668,1.7312000166666668,-7.320177916666668,0,1,D,0.0026631611833333336,0.002308072983333333,-0.0003550881666666667,both
1970-01-02 22:30:34.750,1640,6.701080676923076,1.7350996153846157,-7.321574961538463,0,1,D,0.0026631612,0.003728425633333333,-0.00053263225,both
1970-01-02 22:30:35.000,1640,6.702063266666667,1.7272083166666665,-7.317982458333334,0,1,D,0.0017754408166666665,0.002308072983333333,0.0008877204,both
1970-01-02 22:30:35.250,1640,6.701264953846152,1.7365734846153846,-7.319916946153848,0,1,D,0.0025870708857142857,0.0016739870571428567,-0.0013696257142857143,both
1970-01-02 22:30:35.500,1640,6.7034603666666674,1.7387842583333333,-7.319978266666666,0,1,D,0.0019529848833333334,0.0019529848833333332,-0.0003550881666666667,both
1970-01-02 22:30:35.750,1640,6.700666225,1.73499215,-7.318980341666666,0,1,D,0.0023080730666666664,0.0035508815833333335,0.00017754408333333334,both
1970-01-02 22:30:36.000,1640,6.703659930769233,1.734915376923077,-7.317153438461539,0,1,D,0.0019529848833333332,0.0019529848833333334,-0.00017754408333333334,both
1970-01-02 22:30:36.250,1640,6.701664116666667,1.7369880166666667,-7.320776666666668,0,1,D,0.002130528966666667,0.0014203526666666667,0.0,both
1970-01-02 22:30:36.500,1640,6.702186107692308,1.7362050230769233,-7.309599938461539,0,1,D,0.0022827096142857143,0.0025870708857142857,0.0006087225714285714,both
1970-01-02 22:30:36.750,1640,6.700466666666667,1.7363892416666669,-7.31858125,0,1,D,0.0024856171333333334,0.0008877204166666666,0.0008877204166666666,both
1970-01-02 22:30:37.000,1640,6.703260783333332,1.7298029333333336,-7.323570858333334,0,1,D,0.002663161233333334,0.0015978967166666667,0.0003550881666666667,both
1970-01-02 22:30:37.250,1640,6.702186107692309,1.7343626769230769,-7.320653846153846,0,1,D,0.0019529848833333332,0.0024856171499999997,0.00017754408333333334,both
1970-01-02 22:30:37.500,1640,6.7022628666666675,1.7333954583333335,-7.319179966666668,0,1,D,0.0017754408,0.001775440816666667,-0.0003550881666666667,both
1970-01-02 22:30:37.750,1640,6.69886996923077,1.7341784538461538,-7.326180792307692,0,1,D,0.0018261677,0.0022827096142857143,0.0,both
1970-01-02 22:30:38.000,1640,6.694079916666667,1.7325970916666666,-7.317782941666667,0,1,D,0.00230807305,0.0023080730333333334,-0.0007101763333333333,both
1970-01-02 22:30:38.250,1640,6.700666174999999,1.7357905083333334,-7.320577058333335,0,1,D,0.0024856171333333334,0.0028407053,-0.0012428085833333332,both
1970-01-02 22:30:38.500,1640,6.703844138461539,1.7358365461538463,-7.3188115384615395,0,1,D,0.0024856171333333334,0.00461614605,0.00017754408333333334,both
1970-01-02 22:30:38.750,1640,6.708050866666667,1.7298029499999998,-7.313192475,0,1,D,0.0039059697,0.0033733374499999996,-0.00053263225,both
1970-01-02 22:30:39.000,1640,6.708265738461539,1.7325203692307691,-7.320838084615384,0,1,D,0.0024348902714285713,0.0025870708428571425,-0.0006087225714285714,both
1970-01-02 22:30:39.250,1640,6.706254558333335,1.7327966833333335,-7.311595833333333,0,1,D,0.0015978967333333332,0.0019529849000000001,-0.0003550881666666667,both
1970-01-02 22:30:39.500,1640,6.706853308333334,1.7343933666666669,-7.311795391666666,0,1,D,0.001775440816666667,0.00159789675,0.00017754408333333334,both
1970-01-02 22:30:39.750,1640,6.708081515384616,1.734915376923077,-7.311258046153847,0,1,D,0.00159789675,0.0014203526666666667,-0.00017754408333333334,both
1970-01-02 22:30:40.000,1640,6.7026620333333335,1.73618965,-7.319379574999999,0,1,D,0.0019529849166666665,0.0010652644833333334,0.0007101763333333333,both
1970-01-02 22:30:40.250,1640,6.699606869230769,1.732520353846154,-7.319732661538462,0,1,D,0.0024348902428571427,0.0016739870571428571,0.00015218064285714284,both
1970-01-02 22:30:40.500,1640,6.70366,1.732197966666667,-7.3237704416666665,0,1,D,0.00230807305,0.0024856171166666666,0.0003550881666666667,both
1970-01-02 22:30:40.750,1640,6.7021861,1.7312307153846156,-7.326549230769231,0,1,D,0.0021305289666666664,0.0015978967166666667,-0.0008877204166666666,both
1970-01-02 22:30:41.000,1640,6.706254574999999,1.7451709833333335,-7.315587433333335,0,1,D,0.0010652645,0.0012428085666666667,-0.002308072966666667,both
1970-01-02 22:30:41.250,1640,6.697472766666667,1.735990066666667,-7.3235708666666675,0,1,D,0.0015978967166666667,0.004971233983333333,0.0017754407333333336,both
1970-01-02 22:30:41.500,1640,6.691684930769232,1.7257037769230767,-7.323785792307691,0,1,D,0.0013696257714285716,0.002587070757142857,0.0010652644714285713,both
1970-01-02 22:30:41.750,1640,6.692083991666667,1.7308008750000001,-7.326365175,0,1,D,0.0023080730000000003,-0.0008877203833333335,-0.001242808516666667,both
1970-01-02 22:30:42.000,1640,6.70531813076923,1.737678853846154,-7.315126892307692,0,1,D,0.0024856171000000003,0.0033733375833333336,0.00017754406666666665,both
1970-01-02 22:30:42.250,1640,6.7044582833333335,1.7343933916666667,-7.31818205,0,1,D,0.0023080730833333328,0.0028407053,0.00017754408333333334,both
1970-01-02 22:30:42.500,1640,6.704857441666667,1.7339942083333335,-7.31818205,0,1,D,0.0017754408333333332,0.00230807305,0.0,both
1970-01-02 22:30:42.750,1640,6.701449176923077,1.7367577000000003,-7.321759230769231,0,1,D,0.0022827096142857143,0.0013696257857142857,-0.00015218064285714284,both
1970-01-02 22:30:43.000,1640,6.697872058333334,1.7321979416666666,-7.322572966666669,0,1,D,0.00230807305,0.0014203526666666667,0.0,both
1970-01-02 22:30:43.250,1640,6.706607692307693,1.733809961538462,-7.319180023076925,0,1,D,0.0017754408166666665,0.002840705283333333,-0.00017754408333333334,both
1970-01-02 22:30:43.500,1640,6.703061216666668,1.7310004250000002,-7.3241696083333325,0,1,D,0.0017754408166666665,0.00159789675,0.00017754408333333334,both
1970-01-02 22:30:43.750,1640,6.702861616666667,1.733195875,-7.321375466666666,0,1,D,0.0024856171166666666,0.0015978967166666667,-0.0003550881666666667,both
1970-01-02 22:30:44.000,1640,6.703107261538463,1.7358365307692312,-7.316416530769231,0,1,D,0.0015218064142857141,0.001826167714285714,-0.0006087225714285714,both
1970-01-02 22:30:44.250,1640,6.699867816666668,1.7353912833333334,-7.3223733583333335,0,1,D,0.002130528983333333,0.0023080730833333328,-0.0007101763333333333,both
1970-01-02 22:30:44.500,1640,6.700896500000001,1.7345469076923075,-7.321022261538461,0,1,D,0.0021305289666666664,0.0031957934333333333,0.0,both
1970-01-02 22:30:44.750,1640,6.701464483333335,1.735191733333333,-7.320976300000001,0,1,D,0.0024856171333333334,0.0019529849000000001,-0.00053263225,both
1970-01-02 22:30:45.000,1640,6.699867841666667,1.7347925499999999,-7.32277255,0,1,D,0.0019529849000000001,0.001775440816666667,0.00017754408333333334,both
1970-01-02 22:30:45.250,1640,6.700159546153847,1.7398896615384618,-7.318443030769231,0,1,D,0.002282709614285714,0.0030436128,-0.00015218064285714284,both
1970-01-02 22:30:45.500,1640,6.701863625000001,1.7347925416666665,-7.318581225,0,1,D,0.0017754408333333332,0.0015978967333333332,0.0,both
1970-01-02 22:30:45.750,1640,6.701264930769232,1.7374946153846158,-7.321759261538462,0,1,D,0.002130528983333333,0.0017754408333333332,0.00017754408333333334,both
1970-01-02 22:30:46.000,1640,6.7020632083333345,1.73638925,-7.322173808333333,0,1,D,0.0017754408333333332,0.0023080730666666664,0.0010652644999999997,both
1970-01-02 22:30:46.250,1640,6.7038595333333335,1.7317987916666668,-7.323171666666667,0,1,D,0.00230807305,0.0015978967333333336,0.0007101763333333333,both
1970-01-02 22:30:46.500,1640,6.701817630769231,1.7386000076923076,-7.324154323076924,0,1,D,0.0021305289714285713,0.0010652645,-0.00015218064285714284,both
1970-01-02 22:30:46.750,1640,6.700067458333333,1.7294037583333335,-7.320776633333335,0,1,D,0.0017754408,0.002663161166666667,-0.00053263225,both
1970-01-02 22:30:47.000,1640,6.700712261538461,1.7310464615384618,-7.325259661538462,0,1,D,0.00142035265,0.00142035265,-0.0003550881666666667,both
1970-01-02 22:30:47.250,1640,6.701264891666668,1.731000441666667,-7.32516755,0,1,D,0.0024856171333333334,0.0021305289666666664,-0.0003550881666666667,both
1970-01-02 22:30:47.500,1640,6.704396892307693,1.7334415307692306,-7.319364207692307,0,1,D,0.001978348342857143,0.001978348314285714,-0.0007609032142857142,both
1970-01-02 22:30:47.750,1640,6.701065391666666,1.7355908833333331,-7.3125937500000004,0,1,D,0.0021305289833333328,0.0019529848833333332,-0.00053263225,both
1970-01-02 22:30:48.000,1640,6.700666200000001,1.7343933666666669,-7.318182083333333,0,1,D,0.001775440816666667,0.0026631611833333336,0.00017754408333333334,both
1970-01-02 22:30:48.250,1640,6.70255456923077,1.733441538461539,-7.320285384615384,0,1,D,0.0023080730666666664,0.00159789675,-0.0003550881666666667,both
1970-01-02 22:30:48.500,1640,6.699668208333333,1.735391291666667,-7.316784949999999,0,1,D,0.0019529849000000001,0.0019529849000000001,-0.0007101763333333333,both
1970-01-02 22:30:48.750,1640,6.704581153846154,1.7362049999999998,-7.321759215384616,0,1,D,0.001978348357142857,0.0018261676857142858,0.0004565419285714285,both
1970-01-02 22:30:49.000,1640,6.694678616666668,1.7335950250000003,-7.322772500000002,0,1,D,0.0030182493666666664,0.0003550881666666667,0.0015978967166666667,both
1970-01-02 22:30:49.250,1640,6.708849100000001,1.730800875,-7.314988658333334,0,1,D,0.0023080730333333334,0.0033733375333333342,-0.0007101763166666667,both
1970-01-02 22:30:49.500,1640,6.7047653615384615,1.7312307076923075,-7.314389946153846,0,1,D,0.0024856171000000003,0.0033733375499999997,-0.0005326322499999999,both
1970-01-02 22:30:49.750,1640,6.707651675000001,1.736189625,-7.310997,0,1,D,0.003195793383333333,0.004971234166666667,-0.0001775440666666668,both
1970-01-02 22:30:50.000,1640,6.714713884615386,1.7288357230769231,-7.3154953076923075,0,1,D,0.002282709571428572,0.0025870708428571425,0.0004565419142857143,both
1970-01-02 22:30:50.250,1640,6.7066537,1.7306012750000004,-7.319778708333334,0,1,D,0.0015978967333333332,-0.0005326322333333335,-0.0010652644999999997,both
1970-01-02 22:30:50.500,1640,6.712641250000001,1.730002491666667,-7.311595783333335,0,1,D,0.0017754408333333332,0.0008877203833333333,-0.0008877204,both
1970-01-02 22:30:50.750,1640,6.702001846153845,1.7360207461538464,-7.324891223076923,0,1,D,0.00142035265,0.00035508818333333326,0.0005326322333333333,both
1970-01-02 22:30:51.000,1640,6.706853283333333,1.7290045666666665,-7.321175908333335,0,1,D,0.0019529849000000001,0.0003550881666666667,0.0003550881666666667,both
1970-01-02 22:30:51.250,1640,6.698132946153846,1.7297568692307694,-7.321206538461539,0,1,D,0.0018261676857142856,0.0010652644857142856,0.0,both
1970-01-02 22:30:51.500,1640,6.700666150000001,1.7315992083333331,-7.31798245,0,1,D,0.0019529848833333334,0.003195793383333333,-0.0003550881666666667,both
1970-01-02 22:30:51.750,1640,6.699269141666666,1.7274078916666669,-7.328161325000001,0,1,D,0.0019529848833333332,0.0012428085666666667,0.0,both
1970-01-02 22:30:52.000,1640,6.701633392307693,1.7319676615384618,-7.324891200000001,0,1,D,0.0017754408166666665,0.0021305289999999995,-0.00017754408333333334,both
1970-01-02 22:30:52.250,1640,6.699668233333334,1.7321979666666667,-7.325367133333334,0,1,D,0.0019529849000000001,0.0015978967166666667,-0.00017754408333333334,both
1970-01-02 22:30:52.500,1640,6.6996069,1.7328888153846158,-7.3232331,0,1,D,0.0019783483428571424,0.0016739870714285712,-0.0003043612857142857,both
1970-01-02 22:30:52.750,1640,6.699468725,1.7321979333333335,-7.321175775,0,1,D,0.0023080730333333334,0.0026631611833333336,-0.00017754408333333334,both
1970-01-02 22:30:53.000,1640,6.7038595333333335,1.7317987916666668,-7.324369191666668,0,1,D,0.002130528983333333,0.0012428085833333334,-0.00053263225,both
1970-01-02 22:30:53.250,1640,6.6972118769230775,1.7306780076923078,-7.328391569230769,0,1,D,0.00159789675,0.0019529849166666667,0.00017754408333333334,both
1970-01-02 22:30:53.500,1640,6.693880275000001,1.7447718166666668,-7.327961674999998,0,1,D,0.001775440816666667,0.000532632366666667,-0.0010652644999999997,both
1970-01-02 22:30:53.750,1640,6.7167404307692316,1.7238614307692308,-7.313284584615385,0,1,D,0.0028914320857142857,0.0044132383142857145,0.0010652645,both
1970-01-02 22:30:54.000,1640,6.7080508,1.7302020833333334,-7.315986616666667,0,1,D,0.0014203526000000001,0.00319579335,0.00017754411666666674,both
1970-01-02 22:30:54.250,1640,6.692605923076922,1.7424689000000002,-7.325628200000001,0,1,D,0.0019529849000000001,1.6666666600069952e-11,-0.0012428084666666669,both
1970-01-02 22:30:54.500,1640,6.700267016666667,1.735391308333333,-7.322772524999999,0,1,D,0.002485617166666666,0.0017754408,3.33333333447002e-11,both
1970-01-02 22:30:54.750,1640,6.708250366666667,1.7310004416666667,-7.3121945166666675,0,1,D,0.004793690149999999,0.00852211585,-0.0008877204,both
1970-01-02 22:30:55.000,1640,6.7102923307692315,1.7280987769230771,-7.314390023076923,0,1,D,0.0016739870714285714,0.0003043612857142856,-0.0006087225571428571,both
1970-01-02 22:30:55.250,1640,6.713040475000001,1.73638925,-7.315986658333334,0,1,D,0.0007101763833333331,0.0003550880999999997,-0.0012428085333333332,both
1970-01-02 22:30:55.500,1640,6.7032914846153835,1.7347311461538466,-7.32157496153846,0,1,D,0.0008877204,0.0008877203833333333,0.0005326322166666668,both
1970-01-02 22:30:55.750,1640,6.705855416666666,1.7381855000000002,-7.316385808333334,0,1,D,0.0015978967333333332,0.0,-0.00017754408333333334,both
1970-01-02 22:30:56.000,1640,6.701065366666666,1.7345929500000004,-7.3231716916666665,0,1,D,0.0024856171333333334,0.0,0.0003550881666666667,both
1970-01-02 22:30:56.250,1640,6.7005280461538455,1.7354680615384614,-7.317337692307693,0,1,D,0.0019783483285714283,0.0013696257714285714,0.00045654192857142855,both
1970-01-02 22:30:56.500,1640,6.695077833333333,1.7339942166666666,-7.324568800000001,0,1,D,0.0021305289666666664,0.0019529849000000001,0.0,both
1970-01-02 22:30:56.750,1640,6.698133007692309,1.7345469153846158,-7.321390723076923,0,1,D,0.002130528966666667,0.002130528966666667,-0.00035508815,both
1970-01-02 22:30:57.000,1640,6.695876216666666,1.7353913166666664,-7.3237704416666665,0,1,D,0.0017754408166666665,0.0019529849166666665,-0.00017754408333333334,both
1970-01-02 22:30:57.250,1640,6.701065366666668,1.731798775,-7.318381708333333,0,1,D,0.0019529849166666665,0.0017754408333333332,-0.00053263225,both
1970-01-02 22:30:57.500,1640,6.6975803076923075,1.7365734692307693,-7.32507543846154,0,1,D,0.0016739870571428571,0.0022827095999999997,-0.00015218064285714284,both
1970-01-02 22:30:57.750,1640,6.702662083333334,1.7349921333333336,-7.314988691666667,0,1,D,0.00159789675,0.002130528983333333,-0.0003550881666666667,both
1970-01-02 22:30:58.000,1640,6.70752883076923,1.7328888153846158,-7.322496153846154,0,1,D,0.001775440816666667,0.0024856171333333334,-0.00017754408333333334,both
1970-01-02 22:30:58.250,1640,6.703859533333333,1.7337946333333332,-7.322572916666668,0,1,D,0.0023080730666666664,0.002130528966666667,-0.00053263225,both
1970-01-02 22:30:58.500,1640,6.706254550000001,1.737187566666667,-7.321974191666668,0,1,D,0.0023080730666666664,0.0014203526499999997,-0.00053263225,both
1970-01-02 22:30:58.750,1640,6.700528030769233,1.7374946384615386,-7.320285384615384,0,1,D,0.0019783483285714287,0.0018261676857142856,0.0007609032142857142,both
1970-01-02 22:30:59.000,1640,6.697672400000002,1.7353913083333332,-7.323371308333335,0,1,D,0.002130528983333333,0.0008877204166666666,0.00053263225,both
1970-01-02 22:30:59.250,1640,6.698685723076924,1.7323361076923076,-7.323785769230771,0,1,D,0.0023080730333333334,0.0019529849166666667,0.0,both
1970-01-02 22:30:59.500,1640,6.710246266666668,1.7357905083333334,-7.322173791666668,0,1,D,0.002840705283333333,0.0039059697333333337,-0.0008877204166666666,both
1970-01-02 22:30:59.750,1640,6.712687361538462,1.733994215384615,-7.31070533076923,0,1,D,0.004565419085714286,0.007761212542857142,1.4285714104722569e-11,both
1970-01-02 22:31:00.000,1640,6.7158346,1.7224183083333335,-7.313591641666668,0,1,D,-1.66666666723501e-11,-1.6666666889190534e-11,0.00035508825,both
1970-01-02 22:31:00.250,1640,6.704657883333334,1.7306012583333332,-7.319978333333334,0,1,D,0.0021305289666666664,0.0010652644333333334,-0.0008877203500000002,both
1970-01-02 22:31:00.500,1640,6.709002623076925,1.729204161538462,-7.3119949538461535,0,1,D,0.0015978967333333332,0.0017754407833333334,0.00017754408333333334,both
1970-01-02 22:31:00.750,1640,6.714437566666668,1.7298029333333336,-7.313192475000001,0,1,D,0.0019529848666666669,0.0014203526499999997,-0.0003550881666666667,both
1970-01-02 22:31:01.000,1640,6.706976153846153,1.7384157846153845,-7.317337669230769,0,1,D,0.0015218064,0.00045654194285714276,-0.0007609032142857142,both
1970-01-02 22:31:01.250,1640,6.702063308333334,1.7345929416666668,-7.318381691666667,0,1,D,0.0021305289666666664,0.0017754408333333332,-0.0003550881666666667,both
1970-01-02 22:31:01.500,1640,6.704458283333334,1.7367884333333332,-7.318780833333332,0,1,D,0.0023080730666666664,0.0019529849000000001,-0.00017754408333333334,both
1970-01-02 22:31:01.750,1640,6.708818438461539,1.7360207692307694,-7.318074553846154,0,1,D,0.00159789675,0.0008877204166666666,-0.00053263225,both
1970-01-02 22:31:02.000,1640,6.7044583,1.737387166666667,-7.318980416666668,0,1,D,0.0024856171166666666,-0.00053263225,0.00053263225,both
1970-01-02 22:31:02.250,1640,6.7010807,1.7356523153846153,-7.319180023076923,0,1,D,0.0028914321714285716,0.0012174451285714286,0.0003043612857142857,both
1970-01-02 22:31:02.500,1640,6.699867816666667,1.7359900583333336,-7.323770416666666,0,1,D,0.0017754408333333332,0.002130528966666667,0.00017754408333333334,both
1970-01-02 22:31:02.750,1640,6.698271225,1.7375867500000002,-7.323371325000001,0,1,D,0.0019529848999999997,0.0010652645,-0.0003550881666666667,both
1970-01-02 22:31:03.000,1640,6.697580361538462,1.736573453846154,-7.322680338461539,0,1,D,0.002130528983333333,0.0008877204166666666,-0.0007101763333333333,both
1970-01-02 22:31:03.250,1640,6.697871974999999,1.7371875916666666,-7.3249679500000004,0,1,D,0.001775440816666667,0.0024856171166666666,-0.0007101763166666667,both
1970-01-02 22:31:03.500,1640,6.6975803076923075,1.7371261692307696,-7.323233076923079,0,1,D,0.001826167714285714,0.0019783483285714283,-0.0007609032142857142,both
1970-01-02 22:31:03.750,1640,6.699069533333334,1.7367884000000002,-7.325965908333334,0,1,D,0.0017754408333333332,0.0024856171333333334,-0.00017754408333333334,both
1970-01-02 22:31:04.000,1640,6.701264925,1.7365888083333336,-7.321774608333334,0,1,D,0.002485617133333333,0.002663161233333333,-0.00053263225,both
1970-01-02 22:31:04.250,1640,6.704949546153846,1.7350996,-7.32249613076923,0,1,D,0.0021305289999999995,0.0023080730333333334,-0.0003550881666666667,both
1970-01-02 22:31:04.500,1640,6.698470733333334,1.7343933833333331,-7.323969991666666,0,1,D,0.002130528983333333,0.0024856171166666666,0.00017754408333333334,both
1970-01-02 22:31:04.750,1640,6.700528030769231,1.7343626769230767,-7.3195484846153835,0,1,D,0.0019783483285714287,0.00045654192857142855,0.0003043612857142857,both
1970-01-02 22:31:05.000,1640,6.7032608,1.7327967,-7.321974216666668,0,1,D,0.0019529849166666665,0.0012428085666666667,0.00053263225,both
1970-01-02 22:31:05.250,1640,6.704857475000001,1.7333954583333335,-7.328760158333334,0,1,D,0.0017754408000000001,0.0031957933999999994,0.0,both
1970-01-02 22:31:05.500,1640,6.698869907692309,1.7341784615384614,-7.325812376923076,0,1,D,0.0015978967333333332,0.0010652645,-0.0003550881666666667,both
1970-01-02 22:31:05.750,1640,6.700267008333334,1.7367884083333331,-7.325566716666668,0,1,D,0.0023080730666666664,0.0010652645,-0.00053263225,both
1970-01-02 22:31:06.000,1640,6.702923,1.737494638461539,-7.327654676923078,0,1,D,0.0021305289714285717,0.0028914321857142857,-0.0007609032,both
1970-01-02 22:31:06.250,1640,6.6868948249999995,1.7202228416666667,-7.330755933333333,0,1,D,0.00443860195,0.0099424679,0.005148778466666667,both
1970-01-02 22:31:06.500,1640,6.721899076923076,1.757760169230769,-7.306468007692308,0,1,D,-0.0015978966999999997,-0.0072793074999999985,-0.003905969616666666,both
1970-01-02 22:31:06.750,1640,6.704458275,1.7308008666666668,-7.315387883333334,0,1,D,0.002130528983333333,0.00195298485,0.00159789665,both
1970-01-02 22:31:07.000,1640,6.694678666666668,1.732597125,-7.325167525,0,1,D,0.002130528966666667,0.0012428085333333336,0.0008877204166666666,both
1970-01-02 22:31:07.250,1640,6.694079930769231,1.7321519000000003,-7.328575807692308,0,1,D,0.0022827095999999997,0.002434890242857143,0.0003043612857142857,both
1970-01-02 22:31:07.500,1640,6.697273291666666,1.7353913166666664,-7.324369166666667,0,1,D,0.00159789675,0.0012428085833333332,-0.00053263225,both
1970-01-02 22:31:07.750,1640,6.699606823076923,1.735283846153846,-7.328575838461538,0,1,D,0.0019529848833333334,0.00159789675,-0.00017754408333333334,both
1970-01-02 22:31:08.000,1640,6.695676625,1.739383,-7.3225729416666665,0,1,D,0.0014203526666666667,0.00230807305,0.0,both
1970-01-02 22:31:08.250,1640,6.6938802666666675,1.7367883916666662,-7.3267642166666676,0,1,D,0.0017754408333333332,0.0019529849000000001,-0.00053263225,both
1970-01-02 22:31:08.500,1640,6.696290630769231,1.7363892230769231,-7.315311115384616,0,1,D,0.0016739870714285712,0.0022827095999999997,-0.0003043612857142857,both
1970-01-02 22:31:08.750,1640,6.700466641666668,1.7385846749999996,-7.328360916666668,0,1,D,0.0023080730666666664,0.0019529849000000001,-0.0003550881666666667,both
1970-01-02 22:31:09.000,1640,6.696290669230771,1.7336257461538467,-7.328023115384616,0,1,D,0.0023080730666666664,0.0019529848999999995,-0.0003550881666666667,both
1970-01-02 22:31:09.250,1640,6.6992691083333336,1.7411792833333333,-7.327562516666667,0,1,D,0.002130528983333333,0.0026631612,-0.00017754408333333334,both
1970-01-02 22:31:09.500,1640,6.702462425,1.737387166666667,-7.323770441666665,0,1,D,0.00230807305,0.0012428085666666667,-0.00017754408333333334,both
1970-01-02 22:31:09.750,1640,6.696290684615385,1.7328888076923075,-7.3283915923076925,0,1,D,0.002434890242857143,0.0012174451142857143,0.0006087225714285714,both
1970-01-02 22:31:10.000,1640,6.701664041666667,1.737187575,-7.324967966666667,0,1,D,0.002130528966666667,0.0014203526333333334,0.00017754408333333334,both
1970-01-02 22:31:10.250,1640,6.697948753846154,1.7378631076923072,-7.326549230769232,0,1,D,0.0021305289666666664,0.0019529848833333332,-0.00017754408333333334,both
1970-01-02 22:31:10.500,1640,6.698670308333334,1.731199991666667,-7.331155133333333,0,1,D,0.001242808583333333,0.00195298485,-0.00017754408333333334,both
1970-01-02 22:31:10.750,1640,6.693481125000001,1.7381855,-7.325766275,0,1,D,0.0019529849166666665,0.0021305289666666664,-0.0007101763333333333,both
1970-01-02 22:31:11.000,1640,6.698501484615385,1.7334414923076922,-7.326733523076925,0,1,D,0.0022827096285714284,0.0012174451428571427,-0.00045654192857142855,both
1970-01-02 22:31:11.250,1640,6.701264958333334,1.710044025,-7.331554325,0,1,D,0.0014203526500000004,0.0026631612,-0.00017754408333333334,both
1970-01-02 22:31:11.500,1640,6.671603530769231,1.8778796230769232,-7.411664638461539,0,1,D,-0.07545623216666666,-0.06160779421666666,-0.027341787999999995,both
1970-01-02 22:31:11.750,1640,7.099636525,1.648571875,-7.083270608333333,0,1,D,0.10972223916666667,0.38598082333333333,-0.025921436333333336,both
1970-01-02 22:31:12.000,1640,7.798982274999999,2.05472725,-6.250402425000001,0,1,D,-0.3611246463333333,0.6469706083333333,-0.23506835766666667,both
1970-01-02 22:31:12.250,1640,7.817528392307692,4.009999753846154,-4.9313454384615385,0,1,D,-0.28823012628571426,-0.04261057977142857,-0.5521113428571429,both
1970-01-02 22:31:12.500,1640,7.053332849999999,4.8369416916666665,-5.26385405,0,1,D,0.22690132616666667,0.0204175695,-0.3913071483333333,both
1970-01-02 22:31:12.750,1640,7.066781707692308,3.9444131384615386,-5.797974061538462,0,1,D,0.39556820000000004,0.14753913333333332,0.06586885383333334,both
1970-01-02 22:31:13.000,1640,7.140351866666667,4.37989225,-5.821693983333333,0,1,D,-0.06977482,-0.09054747649999999,-0.005326322000000004,both
1970-01-02 22:31:13.250,1640,7.585579953846154,3.9075666538461538,-5.869640438461539,0,1,D,0.10241756892857144,0.11550510485714287,0.0033479748571428563,both
1970-01-02 22:31:13.500,1640,7.3179825916666665,4.071134233333333,-5.6320882999999995,0,1,D,-0.056814104833333344,-0.04687163516666667,0.01757686395,both
1970-01-02 22:31:13.750,1640,7.444519341666667,3.993695258333334,-5.726691541666667,0,1,D,-0.024856170333333334,-0.022548097166666666,0.03089266866666666,both
1970-01-02 22:31:14.000,1640,7.3311550769230776,4.0136844692307685,-5.756705999999999,0,1,D,0.01012001225,0.007634395416666668,0.001420353400000001,both
1970-01-02 22:31:14.250,1640,7.346323541666667,4.018044575,-5.726292366666667,0,1,D,0.0024856170666666664,-0.010652644533333333,0.002308072966666667,both
1970-01-02 22:31:14.500,1640,7.360263776923077,3.971679484615385,-5.784156638461539,0,1,D,0.001673986957142857,-0.0051741416142857145,0.0051741416285714294,both
1970-01-02 22:31:14.750,1640,7.363886983333334,3.9741359666666667,-5.771997250000001,0,1,D,-0.00053263225,0.00017754408333333334,0.005148778266666667,both
1970-01-02 22:31:15.000,1640,7.360094791666666,3.979325083333334,-5.770600166666665,0,1,D,0.0007101763333333333,0.0012428085666666667,0.0014203526666666667,both
1970-01-02 22:31:15.250,1640,7.34681480769231,3.9810753461538466,-5.7756819,0,1,D,0.0014203526166666665,-0.00159789675,0.0005326322499999999,both
1970-01-02 22:31:15.500,1640,7.357101075,3.9695454333333333,-5.775589858333333,0,1,D,0.0008877203833333333,0.0005326322333333335,0.004616146,both
1970-01-02 22:31:15.750,1640,7.3563948923076925,3.9687317615384616,-5.7766031230769235,0,1,D,0.00045654192857142855,0.003956696585714286,0.0021305289857142854,both
1970-01-02 22:31:16.000,1640,7.359895233333334,3.966950875,-5.775390241666667,0,1,D,0.0023080730666666664,0.004793690133333334,0.002308073083333333,both
1970-01-02 22:31:16.250,1640,7.362090749999999,3.95297985,-5.769602216666667,0,1,D,0.0024856171,0.00248561705,-0.0012428086,both
1970-01-02 22:31:16.500,1640,7.365238038461538,3.9696529230769233,-5.76757576923077,0,1,D,0.001420352616666667,0.0005326321999999999,-0.0015978967166666667,both
1970-01-02 22:31:16.750,1640,7.364286158333332,3.960963258333333,-5.765610591666666,0,1,D,0.001952984866666667,0.00408351375,-0.0008877204,both
1970-01-02 22:31:17.000,1640,7.370212346153847,3.975179869230769,-5.763891076923077,0,1,D,0.0035001547285714286,0.013391896200000001,0.0004565418571428571,both
1970-01-02 22:31:17.250,1640,7.377059616666666,3.9605641666666673,-5.74225915,0,1,D,-0.0008877203666666668,0.0007101763833333336,0.0014203526833333334,both
1970-01-02 22:31:17.500,1640,7.387637641666665,3.963358316666666,-5.747448291666667,0,1,D,0.0005326322,-0.0015978966666666669,-0.002840705233333333,both
1970-01-02 22:31:17.750,1640,7.365422246153845,3.9797856538461542,-5.759285223076922,0,1,D,0.0031957934000000003,-0.0051487781833333334,-0.0019529848,both
1970-01-02 22:31:18.000,1640,7.3576997916666675,3.9619612000000006,-5.774591866666667,0,1,D,0.0017754407666666667,-0.003905969666666667,0.004438602,both
1970-01-02 22:31:18.250,1640,7.358421438461538,3.9573093384615388,-5.771076138461538,0,1,D,-0.000456541942857143,0.0027392515285714287,0.004717599871428571,both
1970-01-02 22:31:18.500,1640,7.355304858333334,3.96156205,-5.770999416666666,0,1,D,0.006391586933333333,0.0012428084833333334,-0.007101762916666667,both
1970-01-02 22:31:18.750,1640,7.368078316666666,3.9779280999999997,-5.772396491666666,0,1,D,-0.0007101764,-0.0007101762833333335,-0.004438602,both
1970-01-02 22:31:19.000,1640,7.348657115384615,3.9770222230769225,-5.77476076923077,0,1,D,0.0040835138,0.0031957934333333333,-0.004438602033333333,both
1970-01-02 22:31:19.250,1640,7.351911941666667,3.9823189416666662,-5.776986983333334,0,1,D,0.0015978966666666667,0.0012428085333333332,-1.333333333788008e-10,both
1970-01-02 22:31:19.500,1640,7.331707761538461,3.9784961153846155,-5.777524276923078,0,1,D,-0.00015218062857142882,0.00030436125714285725,0.004869780428571428,both
1970-01-02 22:31:19.750,1640,7.360693583333333,3.9619612416666663,-5.782974583333334,0,1,D,0.00319579325,0.004261057883333333,0.0033733375,both
1970-01-02 22:31:20.000,1640,7.373528469230769,3.9637574846153845,-5.770891861538463,0,1,D,-0.0008877203333333327,-0.0007101763166666664,0.0063915865,both
1970-01-02 22:31:20.250,1640,7.362689508333335,3.944397758333334,-5.783972466666667,0,1,D,0.0026631611500000005,0.0017754407833333336,0.0014203525833333334,both
1970-01-02 22:31:20.500,1640,7.3796542999999994,3.959765758333333,-5.768404749999999,0,1,D,-0.00017754398333333336,0.0017754407500000003,0.0005326321666666667,both
1970-01-02 22:31:20.750,1640,7.348657084615386,3.956756669230769,-5.777340053846155,0,1,D,0.0030436128714285715,0.0015218064,-0.0016739871714285713,both
1970-01-02 22:31:21.000,1640,7.3507143333333325,3.9631587083333333,-5.777785183333333,0,1,D,0.0026631609999999994,0.0012428084999999997,-0.0008877203500000002,both
1970-01-02 22:31:21.250,1640,7.372423138461538,3.958414738461539,-5.770339253846154,0,1,D,0.004616145966666667,0.00710176295,-0.005148778166666667,both
1970-01-02 22:31:21.500,1640,7.377658358333334,3.9629591666666664,-5.768804033333335,0,1,D,-0.005681410333333334,-0.0014203528166666663,0.007279307383333333,both
1970-01-02 22:31:21.750,1640,7.338938950000002,3.9222438000000004,-5.801935,0,1,D,0.009054748066666665,-0.0003550883000000003,-0.0007101762500000003,both
1970-01-02 22:31:22.000,1640,7.370949276923076,3.965599823076923,-5.769970730769232,0,1,D,0.004413238428571429,0.0053263223428571425,-0.0018261674857142861,both
1970-01-02 22:31:22.250,1640,7.3760616500000005,3.949986116666666,-5.771797741666666,0,1,D,-0.00159789665,0.0012428085333333336,0.002130528833333333,both
1970-01-02 22:31:22.500,1640,7.365606484615384,3.9486504307692303,-5.775682,0,1,D,0.00319579345,0.004261057866666667,-0.0012428085666666665,both
1970-01-02 22:31:22.750,1640,7.363288333333333,3.9521815416666666,-5.773993141666666,0,1,D,0.00142035265,0.0012428085166666667,0.00017754408333333334,both
1970-01-02 22:31:23.000,1640,7.3656832083333335,3.94599445,-5.77479155,0,1,D,0.002485617133333333,0.0012428085666666667,-0.0007101763166666664,both
1970-01-02 22:31:23.250,1640,7.366527630769231,3.9499401153846154,-5.778813923076923,0,1,D,0.002130528957142857,0.001826167685714286,-0.0003043612857142857,both
1970-01-02 22:31:23.500,1640,7.366880841666668,3.953778258333333,-5.784970283333333,0,1,D,0.00230807305,0.0019529849166666665,-0.00017754408333333334,both
1970-01-02 22:31:23.750,1640,7.362290484615384,3.952703592307692,-5.7766031230769235,0,1,D,0.0024856171333333334,0.0024856171499999997,0.0,both
1970-01-02 22:31:24.000,1640,7.367878783333334,3.948988166666666,-5.768803899999999,0,1,D,0.0017754408166666665,0.0017754408333333332,0.0,both
1970-01-02 22:31:24.250,1640,7.361292341666668,3.949187783333333,-5.7763881999999995,0,1,D,0.0023080730666666664,0.0019529848666666669,-0.0005326322333333333,both
1970-01-02 22:31:24.500,1640,7.365790738461538,3.9499400769230766,-5.772734361538462,0,1,D,0.001978348342857143,0.0024348902714285713,0.0,both
1970-01-02 22:31:24.750,1640,7.363487833333335,3.9457948416666664,-5.779381999999999,0,1,D,0.0028407053,0.004083513916666666,-0.0014203526666666667,both
1970-01-02 22:31:25.000,1640,7.370212307692308,3.952703561538461,-5.774760784615386,0,1,D,0.002130528983333333,0.004438601866666667,-0.0014203526666666667,both
1970-01-02 22:31:25.250,1640,7.37466465,3.9513832,-5.7650117750000005,0,1,D,0.0017754408,0.0017754408166666665,-0.00053263225,both
1970-01-02 22:31:25.500,1640,7.362658715384616,3.953256215384615,-5.77826126923077,0,1,D,0.002891432142857143,0.001217445114285714,0.0015218064142857144,both
1970-01-02 22:31:25.750,1640,7.379654258333335,3.9432002916666664,-5.767406908333334,0,1,D,0.0031957933999999994,0.010297556333333333,-0.0003550882333333333,both
1970-01-02 22:31:26.000,1640,7.39222815,3.942401866666667,-5.7472487333333335,0,1,D,0.0017754407000000001,0.0010652644500000004,0.0023080730333333334,both
1970-01-02 22:31:26.250,1640,7.3770289153846145,3.9414653769230767,-5.756706076923076,0,1,D,0.0024856171333333334,0.0023080729999999995,0.0,both
1970-01-02 22:31:26.500,1640,7.405201174999999,3.9651545749999997,-5.786367466666667,0,1,D,0.0031957933999999994,0.006036498566666666,0.003728425783333333,both
1970-01-02 22:31:26.750,1640,7.384213946153848,3.879194884615385,-5.738651315384615,0,1,D,0.012630992728571424,-0.0006087228571428573,0.011413547757142857,both
1970-01-02 22:31:27.000,1640,7.413783291666667,3.901087783333333,-5.760022266666667,0,1,D,-0.00301824935,0.0007101764000000003,0.0031957934833333336,both
1970-01-02 22:31:27.250,1640,7.38703885,3.8871168666666676,-5.785369508333333,0,1,D,0.0051487783833333335,-0.00017754408333333334,0.0010652644166666665,both
1970-01-02 22:31:27.500,1640,7.3974787846153855,3.880852984615385,-5.770707684615385,0,1,D,0.001420352616666667,0.002308072966666667,0.0014203526666666667,both
1970-01-02 22:31:27.750,1640,7.387038908333333,3.883125175,-5.779980608333333,0,1,D,0.0019529849000000001,0.0005326322499999999,-0.0017754407666666667,both
1970-01-02 22:31:28.000,1640,7.394346799999999,3.891538461538462,-5.775497738461538,0,1,D,0.0013696257285714286,0.0019783483571428574,-0.0018261676571428571,both
1970-01-02 22:31:28.250,1640,7.388036791666667,3.898094075000001,-5.779182416666667,0,1,D,0.0017754408,0.0014203526333333334,-0.0015978967333333332,both
1970-01-02 22:31:28.500,1640,7.391829,3.8982936166666664,-5.777386091666666,0,1,D,0.0014203526333333334,0.0015978967333333336,-0.00053263225,both
1970-01-02 22:31:28.750,1640,7.38550373076923,3.9007500615384623,-5.7762346461538465,0,1,D,1.66666666723501e-11,0.0014203526666666667,-0.0033733374833333335,both
1970-01-02 22:31:29.000,1640,7.383246874999998,3.9054787166666665,-5.781178241666666,0,1,D,0.0003550881666666667,-0.002485617083333333,-0.0008877204,both
1970-01-02 22:31:29.250,1640,7.369475438461539,3.9110670769230773,-5.795578946153847,0,1,D,-0.002282709571428571,-0.005782864028571428,-0.0038045160142857145,both
1970-01-02 22:31:29.500,1640,7.366681166666667,3.9362147750000003,-5.797344616666667,0,1,D,0.00159789675,-0.00017754408333333326,-0.0014203525666666667,both
1970-01-02 22:31:29.750,1640,7.359695725000001,3.935017266666667,-5.806525566666667,0,1,D,0.0021305289499999997,0.013138261583333333,-0.002130528966666667,both
1970-01-02 22:31:30.000,1640,7.388635584615384,3.9263583384615375,-5.754863723076923,0,1,D,1.6666666600069952e-11,0.01722177545,-0.006036498549999999,both
1970-01-02 22:31:30.250,1640,7.389633475,3.940805183333334,-5.747248716666667,0,1,D,-0.00017754408333333334,0.005326322383333334,-0.00195298485,both
1970-01-02 22:31:30.500,1640,7.385319446153847,3.958414792307692,-5.7517317384615385,0,1,D,0.0028914321285714284,-0.00015218055714285705,0.0013696256714285718,both
1970-01-02 22:31:30.750,1640,7.4000118499999985,3.929428925,-5.749244625,0,1,D,-0.015978966783333333,0.006924218916666666,0.02077265675,both
1970-01-02 22:31:31.000,1640,7.410789491666667,3.919050458333334,-5.699747591666665,0,1,D,0.04367584124999999,0.00852211575,-0.012072997350000001,both
1970-01-02 22:31:31.250,1640,7.4407733230769235,3.8850903,-5.757074484615385,0,1,D,-0.0021305289333333334,0.01047510043333333,0.009409835983333333,both
1970-01-02 22:31:31.500,1640,7.419970366666668,3.892904816666667,-5.743855841666666,0,1,D,-0.002663161133333333,-0.008877203733333333,0.003195793316666666,both
1970-01-02 22:31:31.750,1640,7.409453946153846,3.8751417461538464,-5.756153369230769,0,1,D,0.0053263223428571425,0.0044132384857142855,0.0012174451,both
1970-01-02 22:31:32.000,1640,7.42635715,3.875141733333333,-5.7472487249999995,0,1,D,0.0005326322833333334,0.000710176333333333,0.0015978966999999997,both
1970-01-02 22:31:32.250,1640,7.42658743076923,3.874589100000001,-5.753758199999999,0,1,D,0.0015978967333333336,-0.0012428085500000002,-0.0008877204166666666,both
1970-01-02 22:31:32.500,1640,7.4165774833333336,3.8779359583333335,-5.758425499999999,0,1,D,0.002663161233333333,0.00159789675,-0.0024856171333333334,both
1970-01-02 22:31:32.750,1640,7.4243613,3.8839235250000006,-5.752438008333335,0,1,D,0.0019529848666666669,0.0039059697,0.0,both
1970-01-02 22:31:33.000,1640,7.416270430769231,3.881589930769231,-5.753942446153847,0,1,D,0.002434890242857143,0.0031957934000000003,-0.0006087225714285714,both
1970-01-02 22:31:33.250,1640,7.422165883333332,3.8795326416666676,-5.747448325000001,0,1,D,0.0019529849000000001,0.003195793383333333,-0.0007101763333333333,both
1970-01-02 22:31:33.500,1640,7.42474516153846,3.881037192307692,-5.749520953846154,0,1,D,0.002840705266666667,0.0023080730333333334,0.0,both
1970-01-02 22:31:33.750,1640,7.420170016666668,3.8819276583333338,-5.748645916666667,0,1,D,0.0019529848833333332,0.0003550881666666667,0.0007101763166666667,both
1970-01-02 22:31:34.000,1640,7.416377933333333,3.8731459250000007,-5.7540345833333335,0,1,D,0.0017754407833333336,-0.0014203526500000004,0.002840705283333333,both
1970-01-02 22:31:34.250,1640,7.416823115384615,3.8674040307692312,-5.756705992307692,0,1,D,0.0022827096142857143,0.003956696614285715,0.0021305289857142854,both
1970-01-02 22:31:34.500,1640,7.441126475000001,3.8675575583333335,-5.735872416666666,0,1,D,0.0012428085666666667,0.013138261533333334,-0.0008877203833333335,both
1970-01-02 22:31:34.750,1640,7.435983284615386,3.8674040153846154,-5.7351508846153845,0,1,D,0.0039059696999999994,0.0019529847666666666,-0.0008877203833333333,both
1970-01-02 22:31:35.000,1640,7.432344616666666,3.8695533666666666,-5.735273725,0,1,D,0.0017754408,0.00106526455,3.333333305557962e-11,both
1970-01-02 22:31:35.250,1640,7.438531858333334,3.867956716666667,-5.733477483333334,0,1,D,0.003018249283333333,0.002130528833333333,-0.0003550881333333334,both
1970-01-02 22:31:35.500,1640,7.436536015384615,3.8703517307692303,-5.731097761538463,0,1,D,0.0010652644714285713,0.0013696257285714286,-0.00045654192857142855,both
1970-01-02 22:31:35.750,1640,7.433542208333332,3.8771375999999997,-5.741660416666666,0,1,D,0.0019529849000000001,0.0019529848833333332,-0.0024856171499999997,both
1970-01-02 22:31:36.000,1640,7.427877107692306,3.877168315384616,-5.735703507692307,0,1,D,0.001065264466666667,0.0007101763333333333,-0.0007101763333333333,both
1970-01-02 22:31:36.250,1640,7.430149241666666,3.876937975,-5.747448291666667,0,1,D,0.0026631612,-0.0008877204,0.00142035265,both
1970-01-02 22:31:36.500,1640,7.421567066666667,3.8671583666666667,-5.754832966666666,0,1,D,0.0015978967000000004,-0.00035508816666666673,0.0033733375,both
1970-01-02 22:31:36.750,1640,7.429166669230768,3.868140976923077,-5.7511791307692315,0,1,D,0.0021305289714285713,0.0025870708428571425,0.0013696257857142857,both
1970-01-02 22:31:37.000,1640,7.424361308333334,3.866958791666667,-5.743456658333334,0,1,D,0.00124280855,0.00124280855,0.00053263225,both
1970-01-02 22:31:37.250,1640,7.428614007692308,3.865377461538462,-5.748231407692308,0,1,D,0.002840705266666667,0.002130528983333333,-0.002130528983333333,both
1970-01-02 22:31:37.500,1640,7.428353008333333,3.8711500750000005,-5.748047049999999,0,1,D,0.0024856171333333334,0.0014203526666666667,-0.0014203526666666667,both
1970-01-02 22:31:37.750,1640,7.418972591666667,3.868156291666667,-5.748845358333333,0,1,D,0.0010652645,0.0023080730000000003,-0.00142035265,both
1970-01-02 22:31:38.000,1640,7.426219015384616,3.8718255846153844,-5.740862076923078,0,1,D,0.002891432142857143,0.004717599757142857,-0.0012174451428571427,both
1970-01-02 22:31:38.250,1640,7.4321450250000005,3.871948391666667,-5.7444546,0,1,D,0.0015978967166666667,0.00905474795,-0.00035508815,both
1970-01-02 22:31:38.500,1640,7.439115215384616,3.8714571307692314,-5.728149999999999,0,1,D,0.003018249283333333,0.005503866500000002,0.0005326322166666667,both
1970-01-02 22:31:38.750,1640,7.438332158333334,3.870950533333333,-5.737868308333334,0,1,D,0.00195298485,-0.0003550881500000002,-0.0015978967000000001,both
1970-01-02 22:31:39.000,1640,7.433404061538463,3.875694484615385,-5.727781646153847,0,1,D,0.0015218064000000002,0.0004565419142857143,-0.0007609032285714284,both
1970-01-02 22:31:39.250,1640,7.4327438416666665,3.8739442499999996,-5.733876575,0,1,D,0.00159789675,-0.0008877204166666666,0.0019529849000000001,both
1970-01-02 22:31:39.500,1640,7.429750116666665,3.8703517583333333,-5.745053383333333,0,1,D,0.002485617116666667,-0.00017754405000000012,0.0026631612,both
1970-01-02 22:31:39.750,1640,7.427877023076925,3.8648247692307693,-5.747678676923077,0,1,D,0.002130528983333333,0.0014203526666666667,0.0019529848833333332,both
1970-01-02 22:31:40.000,1640,7.436336416666666,3.8699525666666665,-5.737069933333333,0,1,D,0.00195298485,0.012960717249999998,-0.0003550881333333333,both
1970-01-02 22:31:40.250,1640,7.4610388692307685,3.861508592307693,-5.721149238461537,0,1,D,0.0012174451285714284,0.0009130838428571428,0.0015218064142857144,both
1970-01-02 22:31:40.500,1640,7.420369516666667,3.8741438666666674,-5.741261241666667,0,1,D,0.0008877203666666665,0.00035508806666666696,-0.00479369005,both
1970-01-02 22:31:40.750,1640,7.418972516666666,3.8797322166666675,-5.741660433333333,0,1,D,0.00284070525,-0.0005326322500000002,-0.0014203526666666667,both
1970-01-02 22:31:41.000,1640,7.43653593076923,3.865377507692308,-5.737361692307693,0,1,D,0.0017754407833333336,-0.0001775440833333334,0.0056814105,both
1970-01-02 22:31:41.250,1640,7.429550474999999,3.8667592,-5.735872475,0,1,D,0.00195298485,0.0017754407500000001,0.00035508815,both
1970-01-02 22:31:41.500,1640,7.43285136153846,3.8642720692307697,-5.739572369230769,0,1,D,0.002130528957142857,0.001978348342857143,-0.0007609031857142857,both
1970-01-02 22:31:41.750,1640,7.436935233333333,3.875341358333334,-5.740263266666666,0,1,D,0.00301824935,0.011540365083333335,-0.0015978966999999997,both
1970-01-02 22:31:42.000,1640,7.4391305999999995,3.860572083333333,-5.729884899999999,0,1,D,0.0012428085666666667,0.0033733374166666666,0.0007101763166666667,both
1970-01-02 22:31:42.250,1640,7.439115253846153,3.870351746153846,-5.727228869230769,0,1,D,0.0037284256833333335,0.0023080730166666666,-0.0017754407666666667,both
1970-01-02 22:31:42.500,1640,7.448511041666667,3.8683558833333342,-5.730483641666666,0,1,D,0.0019529849000000001,0.002840705166666667,-0.0003550881666666667,both
1970-01-02 22:31:42.750,1640,7.4468529461538475,3.8670355923076922,-5.719306938461538,0,1,D,0.0024348902428571427,0.0024348901428571427,-0.0009130838428571428,both
1970-01-02 22:31:43.000,1640,7.450506908333334,3.8605720583333336,-5.723298533333332,0,1,D,0.002130528966666667,0.001242808566666667,-0.00053263225,both
1970-01-02 22:31:43.250,1640,7.435138916666666,3.8673579833333336,-5.732679116666667,0,1,D,0.001420352616666667,0.0012428085833333334,-0.00035508815,both
1970-01-02 22:31:43.500,1640,7.442431438461538,3.8639035769230765,-5.7305450538461535,0,1,D,0.0023080730166666666,0.0024856171166666666,-0.0007101763333333333,both
1970-01-02 22:31:43.750,1640,7.4369351166666675,3.8731459083333335,-5.725294466666667,0,1,D,0.0019529848666666667,0.0015978966666666669,-0.0012428085833333334,both
1970-01-02 22:31:44.000,1640,7.439299461538462,3.869430538461539,-5.731650484615384,0,1,D,0.002130528957142857,0.0016739870428571428,-0.0013696257714285712,both
1970-01-02 22:31:44.250,1640,7.438132641666667,3.8727467583333333,-5.736471133333333,0,1,D,0.0026631612166666666,0.00017754408333333334,-0.0014203526499999997,both
1970-01-02 22:31:44.500,1640,7.432544275000001,3.8771376333333336,-5.737868250000001,0,1,D,-0.0003550881666666667,-0.001420352616666667,0.0019529849166666665,both
1970-01-02 22:31:44.750,1640,7.4269559076923075,3.8681409538461535,-5.753758276923078,0,1,D,0.004438601933333334,-0.0012428085500000002,0.00142035265,both
1970-01-02 22:31:45.000,1640,7.419571233333333,3.869952566666667,-5.75603045,0,1,D,-0.0005326322333333333,0.00017754408333333334,0.0026631612,both
1970-01-02 22:31:45.250,1640,7.439115276923077,3.8609558692307693,-5.7445466846153845,0,1,D,0.0010652644142857143,0.0056306834285714275,0.0025870709142857143,both
1970-01-02 22:31:45.500,1640,7.41717615,3.8555824083333334,-5.759622966666666,0,1,D,0.003905969683333333,-0.00017754401666666744,-0.0014203526333333334,both
1970-01-02 22:31:45.750,1640,7.433956676923078,3.8637193769230764,-5.752837230769231,0,1,D,0.004793690266666668,0.002840705333333334,-0.0042610577833333335,both
1970-01-02 22:31:46.000,1640,7.41757535,3.8651625500000004,-5.755631341666667,0,1,D,0.0014203525333333332,0.0015978966333333334,0.0003550881333333332,both
1970-01-02 22:31:46.250,1640,7.430947575,3.8697529583333328,-5.7352736916666665,0,1,D,0.001242808449999999,0.00514877815,-0.0005326322333333335,both
1970-01-02 22:31:46.500,1640,7.437641323076924,3.8648247692307693,-5.732203215384615,0,1,D,-0.0007609031714285713,0.012478812185714285,-0.0009130837999999999,both
1970-01-02 22:31:46.750,1640,7.450107733333334,3.8805305249999997,-5.720704016666667,0,1,D,0.003728425616666666,0.006924218949999999,-0.009232291883333332,both
1970-01-02 22:31:47.000,1640,7.459380753846153,3.8965126846153852,-5.703647200000001,0,1,D,-0.0003550880999999996,0.0039059697333333333,-0.0008877203833333333,both
1970-01-02 22:31:47.250,1640,7.433741791666667,3.890909,-5.715913966666666,0,1,D,0.003195793416666667,0.00372842565,0.0003550881833333337,both
1970-01-02 22:31:47.500,1640,7.456494441666666,3.8855201750000004,-5.697751758333333,0,1,D,0.0031957932833333335,0.0039059697,0.001597896666666667,both
1970-01-02 22:31:47.750,1640,7.453669546153845,3.8780895000000006,-5.710279530769231,0,1,D,0.0010652644999999997,0.003043612842857143,0.0016739870571428571,both
1970-01-02 22:31:48.000,1640,7.4507064750000005,3.8761396833333337,-5.708928466666667,0,1,D,0.003195793416666667,0.002663161233333334,-0.0008877204166666666,both
1970-01-02 22:31:48.250,1640,7.460301892307692,3.8819583846153844,-5.710279538461538,0,1,D,0.0019529848666666669,-0.00017754408333333334,-0.0012428085666666667,both
1970-01-02 22:31:48.500,1640,7.444918566666668,3.880530641666667,-5.708928458333333,0,1,D,0.0017754408333333334,0.0017754408,-0.0012428085666666667,both
1970-01-02 22:31:48.750,1640,7.447113966666667,3.8901106416666664,-5.708529424999999,0,1,D,0.0023080730333333334,0.0037284257000000007,-0.0012428085833333334,both
1970-01-02 22:31:49.000,1640,7.452195661538462,3.8867484230769236,-5.704752546153847,0,1,D,0.001978348342857143,0.004108877314285714,0.0,both
1970-01-02 22:31:49.250,1640,7.452702383333334,3.8857197666666665,-5.708529433333333,0,1,D,0.0019529848666666667,0.00319579345,-0.00053263225,both
1970-01-02 22:31:49.500,1640,7.454590700000001,3.886379938461538,-5.7005152692307695,0,1,D,0.0017754408333333332,0.0030182493499999997,-0.00053263225,both
1970-01-02 22:31:49.750,1640,7.457093183333332,3.8849214166666663,-5.709527250000001,0,1,D,0.004261057883333333,0.0076343953,0.0007101763166666667,both
1970-01-02 22:31:50.000,1640,7.474656641666666,3.8799318583333338,-5.673402374999999,0,1,D,0.0024856171,0.0097649245,0.0023080730499999997,both
1970-01-02 22:31:50.250,1640,7.475593099999998,3.8707201769230775,-5.683934246153846,0,1,D,0.0018261676571428571,0.0010652644714285715,-0.0021305289714285713,both
1970-01-02 22:31:50.500,1640,7.470265791666666,3.8829256,-5.687572858333334,0,1,D,0.0019529849166666665,-0.00213052895,-0.0019529849000000001,both
1970-01-02 22:31:50.750,1640,7.449616469230768,3.8812214000000003,-5.7069634,0,1,D,0.00159789675,-0.0037284256833333327,-0.00017754408333333334,both
1970-01-02 22:31:51.000,1640,7.456095316666668,3.8843226666666673,-5.696753808333334,0,1,D,-0.00017754411666666653,0.00408351375,0.0028407053333333334,both
1970-01-02 22:31:51.250,1640,7.463679483333333,3.8779359250000005,-5.698749716666666,0,1,D,0.002130528966666667,0.0037284256833333335,0.0010652644999999997,both
1970-01-02 22:31:51.500,1640,7.461407376923078,3.881037176923077,-5.693145899999999,0,1,D,0.003347974028571428,0.0015218064285714285,-0.0013696257857142857,both
1970-01-02 22:31:51.750,1640,7.460286466666667,3.881129308333334,-5.695556358333332,0,1,D,-0.0008877204,-0.00017754408333333334,0.0021305289666666664,both
1970-01-02 22:31:52.000,1640,7.464723515384614,3.8795633307692303,-5.696646276923077,0,1,D,0.003018249316666667,-0.00035508811666666676,-0.0010652644833333332,both
1970-01-02 22:31:52.250,1640,7.4455173,3.880330966666667,-5.714916058333333,0,1,D,0.0035508816166666666,-0.0012428085666666667,-0.0010652644999999997,both
1970-01-02 22:31:52.500,1640,7.452195715384615,3.884906076923077,-5.705489561538461,0,1,D,0.00015218064285714284,0.0035001547000000004,0.0009130838571428572,both
1970-01-02 22:31:52.750,1640,7.454299041666666,3.8835243416666674,-5.711323633333333,0,1,D,0.0031957934666666673,0.0026631612,-0.00142035265,both
1970-01-02 22:31:53.000,1640,7.451105616666666,3.884522308333334,-5.713918166666667,0,1,D,0.00124280855,0.00301824935,-0.0001775440833333334,both
1970-01-02 22:31:53.250,1640,7.462881130769232,3.8839849000000006,-5.700883730769231,0,1,D,0.0010652644833333334,0.004083513816666667,0.0007101763333333333,both
1970-01-02 22:31:53.500,1640,7.454099508333333,3.879333050000001,-5.702940966666667,0,1,D,0.0026631612166666666,0.0008877203999999996,-0.0008877204166666666,both
1970-01-02 22:31:53.750,1640,7.448326807692309,3.8791948384615385,-5.710832253846153,0,1,D,0.002739251514285714,-0.0012174451285714288,0.0022827095999999997,both
1970-01-02 22:31:54.000,1640,7.455097358333333,3.876538866666666,-5.704537666666667,0,1,D,0.0,0.002840705316666666,0.002840705283333333,both
1970-01-02 22:31:54.250,1640,7.444918566666668,3.8745430416666675,-5.714516799999999,0,1,D,0.0023080730000000003,0.0026631611166666666,0.0014203526166666665,both
1970-01-02 22:31:54.500,1640,7.466750069230771,3.8701675153846153,-5.698488646153847,0,1,D,0.0024856170666666664,0.0039059697,0.00035508815000000004,both
1970-01-02 22:31:54.750,1640,7.4644778333333335,3.8741438583333334,-5.707531499999999,0,1,D,0.0010652644833333334,0.00124280855,0.0001775441,both
1970-01-02 22:31:55.000,1640,7.444273723076924,3.872562515384615,-5.7182015538461535,0,1,D,0.0016739869428571432,-0.0009130837857142857,-0.003043612814285714,both
1970-01-02 22:31:55.250,1640,7.459687716666665,3.883125175,-5.7119223,0,1,D,-0.00035508809999999997,-0.006391586733333334,-0.0014203525999999997,both
1970-01-02 22:31:55.500,1640,7.417774941666668,3.8771376416666663,-5.739664499999999,0,1,D,0.0031957933666666664,-0.00479369015,-3.3333333489260486e-11,both
1970-01-02 22:31:55.750,1640,7.44077330769231,3.8893276461538466,-5.728334276923077,0,1,D,0.0010652644666666667,0.0019529849166666667,0.0001775440833333334,both
1970-01-02 22:31:56.000,1640,7.42276475,3.8749421750000006,-5.74605125,0,1,D,0.0028407051833333335,0.0035508815499999996,-0.0008877203333333333,both
1970-01-02 22:31:56.250,1640,7.437272915384615,3.8823268384615384,-5.731834692307692,0,1,D,0.0018261676571428573,0.003500154657142857,-1.428571422863139e-11,both
1970-01-02 22:31:56.500,1640,7.4345401666666655,3.8817280750000003,-5.733677,0,1,D,0.0012428085833333332,0.0026631612,0.0007101763333333333,both
1970-01-02 22:31:56.750,1640,7.433143108333333,3.8821272333333336,-5.73567285,0,1,D,0.002663161166666667,0.0010652644999999997,-1.66666666723501e-11,both
1970-01-02 22:31:57.000,1640,7.443721084615385,3.8753259999999994,-5.726860438461538,0,1,D,0.0046161459833333335,0.005858954566666667,0.0037284256666666655,both
1970-01-02 22:31:57.250,1640,7.436935166666668,3.868355875,-5.7302840999999995,0,1,D,-0.0012428085166666665,0.0051487781166666665,0.002485617133333333,both
1970-01-02 22:31:57.500,1640,7.443536830769231,3.864640515384615,-5.725570776923077,0,1,D,0.0038045160142857145,0.0044132385,0.00030436127142857147,both
1970-01-02 22:31:57.750,1640,7.454498600000001,3.871349625,-5.715913891666666,0,1,D,0.00142035265,0.0015978966166666664,-0.0007101763333333333,both
1970-01-02 22:31:58.000,1640,7.4489102916666665,3.8675575583333335,-5.721302766666667,0,1,D,0.003018249333333334,0.0017754407833333334,-0.0010652645000000002,both
1970-01-02 22:31:58.250,1640,7.449063707692308,3.866667069230769,-5.717096138461539,0,1,D,0.00230807305,0.0047936901,-0.0012428085833333334,both
1970-01-02 22:31:58.500,1640,7.472261675000001,3.8763392833333334,-5.699947166666667,0,1,D,0.0021305289333333334,0.008877204000000001,0.00035508815000000004,both
1970-01-02 22:31:58.750,1640,7.4588280538461555,3.8688778461538464,-5.710095261538461,0,1,D,0.0022827095,0.00015218065714285708,-0.0012174451285714284,both
1970-01-02 22:31:59.000,1640,7.459887433333335,3.871150033333334,-5.710325566666666,0,1,D,0.0019529848,0.0023080730333333334,-0.0019529848833333332,both
1970-01-02 22:31:59.250,1640,7.45256413846154,3.873667961538463,-5.7180173000000005,0,1,D,0.001597896683333333,0.0023080730166666666,-0.0008877204333333331,both
1970-01-02 22:31:59.500,1640,7.454698216666667,3.8759401333333336,-5.708728908333334,0,1,D,0.0026631612499999993,0.0023080730333333334,-0.00053263225,both
1970-01-02 22:31:59.750,1640,7.457292766666668,3.87693805,-5.709527291666667,0,1,D,0.002130528966666667,-0.0023080730333333334,0.0,both
1970-01-02 22:32:00.000,1640,7.428982446153847,3.8642720615384616,-5.725755015384613,0,1,D,0.003043612857142857,0.003804515914285714,-0.0027392514714285714,both
1970-01-02 22:32:00.250,1640,7.489825100000001,3.894501508333333,-5.685576974999999,0,1,D,-0.0008877204833333333,0.005858954516666668,0.00035508821666666674,both
1970-01-02 22:32:00.500,1640,7.4459318076923084,3.8790106615384614,-5.709726892307693,0,1,D,0.0026631612,0.0047936901166666665,-0.0005326321833333332,both
1970-01-02 22:32:00.750,1640,7.465675316666668,3.8799318083333336,-5.698150908333333,0,1,D,0.0026631612166666666,0.0024856170166666666,-0.0010652645,both
1970-01-02 22:32:01.000,1640,7.460486066666668,3.8803310166666676,-5.701543891666667,0,1,D,0.0010652644999999997,0.0007101763166666667,0.00017754408333333334,both
1970-01-02 22:32:01.250,1640,7.456248838461539,3.8799317923076924,-5.698120238461538,0,1,D,0.0021305289999999995,0.0022827095999999997,-0.0013696257857142857,both
1970-01-02 22:32:01.500,1640,7.459488225,3.8843226833333326,-5.70274145,0,1,D,0.002663161233333334,0.002130528966666667,-0.0007101763333333333,both
1970-01-02 22:32:01.750,1640,7.459564876923077,3.8869325923076925,-5.697383261538461,0,1,D,0.0012428085666666667,0.0028407053,-0.0003550881666666667,both
1970-01-02 22:32:02.000,1640,7.4658749250000005,3.8815284749999996,-5.6995480333333335,0,1,D,0.0023080730333333334,0.004616146016666666,0.0003550881666666667,both
1970-01-02 22:32:02.250,1640,7.469667108333333,3.889711416666667,-5.6835811833333345,0,1,D,-0.0014203525666666667,0.0058589545833333334,0.0021305289166666666,both
1970-01-02 22:32:02.500,1640,7.463433892307693,3.8803002846153847,-5.694804076923077,0,1,D,0.004869780385714285,-0.00015218062857142857,-0.0006087225428571429,both
1970-01-02 22:32:02.750,1640,7.4660745749999995,3.8811293416666666,-5.701144725,0,1,D,0.0015978967000000001,-0.0019529848166666669,0.0019529849000000001,both
1970-01-02 22:32:03.000,1640,7.455511892307691,3.875878700000001,-5.707515984615385,0,1,D,0.0021305289499999997,-0.0005326322666666666,0.0014203526333333334,both
1970-01-02 22:32:03.250,1640,7.464877049999999,3.8791334416666667,-5.684978341666667,0,1,D,0.003905969716666667,0.013138261733333332,-0.0010652644833333334,both
1970-01-02 22:32:03.500,1640,7.4770516916666665,3.8711501083333335,-5.6891695916666665,0,1,D,0.00248561705,0.0012428085500000002,0.00017754413333333335,both
1970-01-02 22:32:03.750,1640,7.472092815384615,3.8810372461538467,-5.6944356076923075,0,1,D,0.0018261676714285714,0.0,-0.0015218063857142857,both
1970-01-02 22:32:04.000,1640,7.471463333333333,3.879532625,-5.693959691666667,0,1,D,0.00142035265,0.0015978966833333334,0.0003550881666666667,both
1970-01-02 22:32:04.250,1640,7.471724353846154,3.8799317923076924,-5.694619723076922,0,1,D,0.0017754408,0.0019529849000000001,-0.00053263225,both
1970-01-02 22:32:04.500,1640,7.470465316666665,3.8783351666666674,-5.692562566666666,0,1,D,0.0026631612166666666,0.004083513766666667,-0.0007101763333333333,both
1970-01-02 22:32:04.750,1640,7.4700661833333335,3.8815285166666675,-5.688171691666667,0,1,D,-0.0021305289166666666,0.0035508814833333335,-0.00017754408333333326,both
1970-01-02 22:32:05.000,1640,7.468408146153847,3.8852745769230776,-5.692593246153847,0,1,D,0.004108877171428571,0.0013696256999999998,-0.0012174451285714284,both
1970-01-02 22:32:05.250,1640,7.466872849999999,3.8815284916666672,-5.690965883333333,0,1,D,0.0024856171666666664,0.0008877203833333333,0.00035508815000000004,both
1970-01-02 22:32:05.500,1640,7.463618015384615,3.8797475846153855,-5.690013984615385,0,1,D,0.0021305289499999997,0.0015978967166666667,-0.0008877204166666666,both
1970-01-02 22:32:05.750,1640,7.41917205,3.8679567,-5.691963725,0,1,D,0.004971234166666666,-0.0010652644500000004,-0.002130528883333333,both
1970-01-02 22:32:06.000,1640,7.4853575153846155,3.893012315384615,-5.716174953846154,0,1,D,0.005935044700000001,-0.002130528457142857,-0.004717599671428571,both
1970-01-02 22:32:06.250,1640,7.4690683333333325,3.8851210333333337,-5.705735175,0,1,D,0.0039059696666666668,0.0008877204333333329,-0.0019529848833333334,both
1970-01-02 22:32:06.500,1640,7.430149316666668,3.8939027666666672,-5.713119816666667,0,1,D,0.0028407054166666667,0.0012428085,0.00017754398333333365,both
1970-01-02 22:32:06.750,1640,7.47946216923077,3.886011423076923,-5.698488707692308,0,1,D,0.0015978966833333334,0.004261057416666666,0.0017754406666666666,both
1970-01-02 22:32:07.000,1640,7.455097341666668,3.875341341666667,-5.707331783333333,0,1,D,0.0031957934000000007,0.007811939333333334,-1.66666666723501e-11,both
1970-01-02 22:32:07.250,1640,7.4503534230769235,3.890064569230769,-5.693330123076922,0,1,D,-0.0003043612571428572,0.002739251742857143,0.00045654194285714265,both
1970-01-02 22:32:07.500,1640,7.450506891666667,3.8785347083333335,-5.710126016666667,0,1,D,0.0023080730166666666,0.00408351375,-0.0028407052833333336,both
1970-01-02 22:32:07.750,1640,7.468868741666667,3.8877156166666667,-5.689568741666666,0,1,D,0.0015978967000000001,0.0037284255833333335,-0.00017754408333333334,both
1970-01-02 22:32:08.000,1640,7.466750023076922,3.885458815384616,-5.694804053846155,0,1,D,0.0014203526499999997,0.0024856171166666666,0.00017754408333333334,both
1970-01-02 22:32:08.250,1640,7.464677458333333,3.888513958333334,-5.687173766666667,0,1,D,0.002130528983333333,0.0026631612,-0.0008877204166666666,both
1970-01-02 22:32:08.500,1640,7.472829684615385,3.886379961538462,-5.68780323076923,0,1,D,0.0018261676857142858,0.0021305289714285717,-0.00045654192857142855,both
1970-01-02 22:32:08.750,1640,7.459687724999999,3.886717733333333,-5.697153008333334,0,1,D,0.0024856171499999997,0.00017754408333333334,0.00017754408333333334,both
1970-01-02 22:32:09.000,1640,7.4674716000000005,3.879532616666667,-5.692163458333333,0,1,D,0.0023080730666666664,0.0019529848666666669,0.0012428085666666667,both
1970-01-02 22:32:09.250,1640,7.466750107692307,3.880300253846154,-5.7008836615384615,0,1,D,0.0024856171333333334,0.0023080730166666666,0.00159789675,both
1970-01-02 22:32:09.500,1640,7.472261691666667,3.8733455333333335,-5.698949375000001,0,1,D,0.0008877204166666666,0.0015978967166666667,0.00142035265,both
1970-01-02 22:32:09.750,1640,7.470066207692308,3.8803002692307698,-5.690013984615385,0,1,D,0.0013696257857142857,0.0024348902,-0.00045654192857142855,both
1970-01-02 22:32:10.000,1640,7.466274150000001,3.8817280833333334,-5.694957541666667,0,1,D,0.0019529849000000001,0.0014203526,-0.001242808583333333,both
1970-01-02 22:32:10.250,1640,7.465076616666668,3.882925616666667,-5.697552183333333,0,1,D,0.0017754408333333332,0.0019529849000000001,-0.0008877204166666666,both
1970-01-02 22:32:10.500,1640,7.466013107692309,3.886379930769231,-5.693330146153846,0,1,D,0.0024856171166666666,0.0024856170833333336,-0.0012428085833333334,both
1970-01-02 22:32:10.750,1640,7.468270025,3.888513958333333,-5.690566641666667,0,1,D,0.0023080730666666664,0.0017754408,-0.0007101763166666667,both
1970-01-02 22:32:11.000,1640,7.464170823076923,3.8876695615384618,-5.694435538461539,0,1,D,0.001978348342857143,0.002891432157142857,-0.0003043612857142857,both
1970-01-02 22:32:11.250,1640,7.466274075,3.8891127000000005,-5.690766258333333,0,1,D,0.0019529849000000001,0.0026631612166666666,-0.0003550881666666667,both
1970-01-02 22:32:11.500,1640,7.470803130769231,3.8891434461538457,-5.689277123076922,0,1,D,0.002130528966666667,0.0040835137833333335,0.0,both
1970-01-02 22:32:11.750,1640,7.477051733333333,3.877935966666666,-5.680986591666667,0,1,D,0.003373337533333333,0.007101763083333334,0.00337333745,both
1970-01-02 22:32:12.000,1640,7.472261633333333,3.886917316666667,-5.6821840166666675,0,1,D,0.0024856171333333334,0.0,-0.0017754407833333334,both
1970-01-02 22:32:12.250,1640,7.4805675461538454,3.8865641769230774,-5.681170946153846,0,1,D,0.001369625757142857,0.0010652644714285715,-0.000913083857142857,both
1970-01-02 22:32:12.500,1640,7.4722615999999995,3.8791334749999997,-5.687772533333333,0,1,D,0.0019529849000000001,-0.00053263225,-0.00053263225,both
1970-01-02 22:32:12.750,1640,7.470250453846154,3.8904330384615395,-5.693330230769231,0,1,D,0.00053263225,-0.003195793416666667,0.0030182493,both
1970-01-02 22:32:13.000,1640,7.450906083333332,3.8773372333333334,-5.709128091666667,0,1,D,0.0051487781833333334,-0.0012428085333333332,0.0005326322333333333,both
1970-01-02 22:32:13.250,1640,7.468868691666668,3.8669587916666672,-5.706134308333334,0,1,D,-0.0007101762666666666,0.0058589545833333334,0.0008877203833333333,both
1970-01-02 22:32:13.500,1640,7.461407292307692,3.8930123076923073,-5.699778284615385,0,1,D,0.0036523354,-0.00015218062857142863,-0.001521806357142857,both
1970-01-02 22:32:13.750,1640,7.457292750000001,3.875540941666667,-5.708728858333334,0,1,D,0.0014203526333333334,-0.00035508815000000004,-0.00017754406666666665,both
1970-01-02 22:32:14.000,1640,7.454037992307692,3.881774100000001,-5.70677906153846,0,1,D,0.0012428085666666667,0.0014203526666666667,-0.0008877204,both
1970-01-02 22:32:14.250,1640,7.462282458333333,3.885121050000001,-5.698550133333334,0,1,D,0.0008877204,0.0014203526333333334,-0.00035508815000000004,both
1970-01-02 22:32:14.500,1640,7.455496441666667,3.889711483333334,-5.704138483333334,0,1,D,0.002130528983333333,0.0007101763333333333,-0.001242808583333333,both
1970-01-02 22:32:14.750,1640,7.452379892307691,3.884353384615385,-5.708437284615385,0,1,D,0.0019783483285714283,0.001369625757142857,-0.00015218064285714284,both
1970-01-02 22:32:15.000,1640,7.453700291666666,3.8869172499999998,-5.694957575,0,1,D,-0.00053263225,0.0012428085500000002,0.0003550881333333333,both
1970-01-02 22:32:15.250,1640,7.449247969230769,3.8854587692307687,-5.723728453846154,0,1,D,0.0026631611666666673,-0.002130528916666667,-0.00017754406666666665,both
1970-01-02 22:32:15.500,1640,7.459088991666667,3.9006886583333333,-5.703938783333334,0,1,D,0.0023080729833333336,0.0010652645000000002,-0.0008877204666666665,both
1970-01-02 22:32:15.750,1640,7.432544275000001,3.875141783333334,-5.728288241666667,0,1,D,0.00017754408333333412,-0.0008877203833333333,0.00017754405000000006,both
1970-01-02 22:32:16.000,1640,7.437272869230771,3.894301923076924,-5.725386507692307,0,1,D,0.0021305289142857144,-0.002282709485714286,0.0010652644857142856,both
1970-01-02 22:32:16.250,1640,7.4507065,3.8869172833333336,-5.728487808333333,0,1,D,-0.0028407052166666666,-0.004971233266666667,0.004616145966666666,both
1970-01-02 22:32:16.500,1640,7.409085453846154,3.8944861769230767,-5.757627230769231,0,1,D,-0.0017754406500000005,-0.006569130666666666,0.003018249283333333,both
1970-01-02 22:32:16.750,1640,7.408793591666666,3.8811293166666663,-5.76640895,0,1,D,-0.0007101762833333333,-0.009054748216666667,0.0028407052833333336,both
1970-01-02 22:32:17.000,1640,7.401209349999999,3.8847218499999996,-5.770799816666667,0,1,D,-0.0010652642499999997,-0.0003550880666666662,-0.0007101763166666664,both
1970-01-02 22:32:17.250,1640,7.400979146153848,3.8889592076923085,-5.779550815384615,0,1,D,0.00030436135714285723,-0.003043612771428571,0.0012174451142857143,both
1970-01-02 22:32:17.500,1640,7.403604366666667,3.881728041666667,-5.779182366666666,0,1,D,0.002130528983333333,0.0019529848833333332,0.002663161233333334,both
1970-01-02 22:32:17.750,1640,7.402268784615385,3.8838007153846155,-5.773286930769231,0,1,D,0.0026631611500000005,0.0017754407666666667,0.0010652645,both
1970-01-02 22:32:18.000,1640,7.405400716666667,3.8751417833333335,-5.777386191666667,0,1,D,0.0024856171499999997,0.002485617116666666,-0.00017754408333333334,both
1970-01-02 22:32:18.250,1640,7.402606375000001,3.887516025,-5.776188583333333,0,1,D,0.0026631612,0.002663161233333333,-0.0005326322333333333,both
1970-01-02 22:32:18.500,1640,7.407058846153846,3.8884065076923084,-5.783603861538461,0,1,D,0.0021305289714285717,0.002130528957142857,-0.0010652645,both
1970-01-02 22:32:18.750,1640,7.401009816666668,3.878534725,-5.78037985,0,1,D,0.0021305289333333334,0.002308073016666667,-0.0010652644999999997,both
1970-01-02 22:32:19.000,1640,7.4017161692307685,3.8880380230769234,-5.775313484615385,0,1,D,0.00213052895,0.0017754407833333334,-0.00017754408333333334,both
1970-01-02 22:32:19.250,1640,7.406598266666666,3.887116891666667,-5.778982841666667,0,1,D,0.0014203526666666667,0.0010652644833333334,-0.0003550881666666667,both
1970-01-02 22:32:19.500,1640,7.398399823076924,3.8858271923076924,-5.771628846153846,0,1,D,0.002434890214285714,0.0036523353571428574,-0.0009130838285714287,both
1970-01-02 22:32:19.750,1640,7.4040036166666665,3.8909089916666666,-5.7771865,0,1,D,0.0015978967333333332,0.00284070525,-0.00017754406666666665,both
1970-01-02 22:32:20.000,1640,7.405001566666667,3.888513991666668,-5.774791441666667,0,1,D,0.002130528983333333,0.0024856171166666666,0.0008877204,both
1970-01-02 22:32:20.250,1640,7.403926923076923,3.8898803846153855,-5.7791824,0,1,D,0.0019529848999999995,0.0017754408333333332,-0.00035508815000000004,both
1970-01-02 22:32:20.500,1640,7.40380415,3.890110658333333,-5.772795599999999,0,1,D,0.00213052895,0.0023080730666666664,0.0,both
1970-01-02 22:32:20.750,1640,7.401716138461538,3.8902488307692313,-5.768681076923077,0,1,D,0.003347974071428571,0.0006087225571428571,-0.0012174451142857143,both
1970-01-02 22:32:21.000,1640,7.403404883333333,3.8877156,-5.776388166666667,0,1,D,0.002308073033333334,0.0010652644999999997,0.0005326322166666666,both
1970-01-02 22:32:21.250,1640,7.400810225000001,3.8829255583333335,-5.777785225,0,1,D,0.002130528983333333,0.0026631611333333334,0.0023080730666666664,both
1970-01-02 22:32:21.500,1640,7.396557638461538,3.8760629,-5.774208084615385,0,1,D,0.004616146033333333,0.0040835138,0.0010652644666666667,both
1970-01-02 22:32:21.750,1640,7.4231638333333345,3.8767384416666673,-5.7646126749999995,0,1,D,0.0021305289,0.007101763166666667,0.0007101763166666666,both
1970-01-02 22:32:22.000,1640,7.4287983,3.8690621076923075,-5.752837200000001,0,1,D,0.007304670399999999,0.009130837700000002,-0.0003043612857142858,both
1970-01-02 22:32:22.250,1640,7.408394491666665,3.8793330749999995,-5.771997408333333,0,1,D,-0.006036498549999999,0.0028407050000000002,-0.0005326322166666666,both
1970-01-02 22:32:22.500,1640,7.4293509250000005,3.869154183333333,-5.755431858333332,0,1,D,0.007811939483333333,0.0010652644666666667,-0.0028407052666666664,both
1970-01-02 22:32:22.750,1640,7.427324284615385,3.8790106461538465,-5.757258738461539,0,1,D,0.0024856170833333336,0.0015978966666666669,-0.00017754406666666665,both
1970-01-02 22:32:23.000,1640,7.426157641666666,3.8749421833333333,-5.754633383333332,0,1,D,0.0014203526666666667,0.003550881566666667,0.00017754408333333334,both
1970-01-02 22:32:23.250,1640,7.429535153846154,3.8773525307692314,-5.753758307692308,0,1,D,0.0013696257714285714,0.0035001547142857145,-0.0012174451428571427,both
1970-01-02 22:32:23.500,1640,7.429350908333333,3.878335116666667,-5.751439991666667,0,1,D,0.0014203526333333334,0.00284070525,-0.0008877204166666666,both
1970-01-02 22:32:23.750,1640,7.427155483333334,3.877536791666667,-5.745652024999999,0,1,D,0.0019529848833333332,0.003550881566666666,-0.0012428085833333332,both
1970-01-02 22:32:24.000,1640,7.43285133846154,3.8801160461538466,-5.751916015384617,0,1,D,0.00266316125,0.004261057833333332,-0.0008877204166666666,both
1970-01-02 22:32:24.250,1640,7.439928875,3.877137591666667,-5.718109358333333,0,1,D,0.003550881466666667,0.013670893749999998,0.0015978966999999997,both
1970-01-02 22:32:24.500,1640,7.440957561538463,3.881774130769231,-5.727965776923076,0,1,D,0.004108877257142857,0.0022827095000000006,-0.0021305289714285713,both
1970-01-02 22:32:24.750,1640,7.463280341666667,3.8717488749999998,-5.723697791666667,0,1,D,-0.0003550882333333335,-0.0023080730000000003,-0.003195793316666667,both
1970-01-02 22:32:25.000,1640,7.419172141666668,3.8951002833333335,-5.7498433250000005,0,1,D,0.0008877204166666666,-0.001775440916666667,-0.0007101763666666665,both
1970-01-02 22:32:25.250,1640,7.434325184615385,3.880668730769231,-5.736809030769232,0,1,D,0.005326322283333333,0.0035508815500000005,-0.0010652644833333334,both
1970-01-02 22:32:25.500,1640,7.437933133333334,3.8905097833333326,-5.724496041666666,0,1,D,-0.0017754407666666667,-0.0019529849000000001,0.0017754408,both
1970-01-02 22:32:25.750,1640,7.423639753846154,3.8749575615384613,-5.755600630769231,0,1,D,0.0030436127285714287,-0.0036523353857142856,0.003043612814285714,both
1970-01-02 22:32:26.000,1640,7.422964208333333,3.8775368,-5.752038758333334,0,1,D,0.00213052895,0.0017754408,0.0015978967166666667,both
1970-01-02 22:32:26.250,1640,7.426403230769231,3.872930984615385,-5.7539424769230765,0,1,D,0.00142035265,0.0024856171499999997,0.0014203526666666667,both
1970-01-02 22:32:26.500,1640,7.430748016666668,3.873545108333333,-5.755830824999999,0,1,D,0.00230807305,0.00230807305,-0.0015978967333333336,both
1970-01-02 22:32:26.750,1640,7.419571283333333,3.8773372500000005,-5.759822558333333,0,1,D,0.002130528966666667,0.0008877204166666666,-0.00035508815000000004,both
1970-01-02 22:32:27.000,1640,7.423087053846154,3.8764313769230774,-5.752652884615386,0,1,D,0.002130528957142857,0.0015218064,0.0003043612857142857,both
1970-01-02 22:32:27.250,1640,7.422964233333334,3.876538883333333,-5.751639625,0,1,D,0.0012428085666666667,0.0019529848666666662,0.00017754408333333334,both
1970-01-02 22:32:27.500,1640,7.4269559461538455,3.8769840769230774,-5.752837161538462,0,1,D,0.002485617133333333,0.00266316125,0.0003550881666666667,both
1970-01-02 22:32:27.750,1640,7.42575835,3.8743433999999994,-5.7614192583333335,0,1,D,0.0026631612166666666,0.002130528966666667,0.0003550881666666667,both
1970-01-02 22:32:28.000,1640,7.419172141666667,3.8761397,-5.755830858333333,0,1,D,0.0017754408166666662,0.00159789675,-0.00017754406666666673,both
1970-01-02 22:32:28.250,1640,7.427692807692306,3.8734836538461535,-5.751363276923077,0,1,D,0.0028914321857142857,0.0016739870428571426,-0.0003043612857142857,both
1970-01-02 22:32:28.500,1640,7.424560950000001,3.8767385000000005,-5.750641741666667,0,1,D,0.0007101763166666667,0.0021305289166666666,-0.0010652644666666667,both
1970-01-02 22:32:28.750,1640,7.421981615384615,3.8712728846153848,-5.758548307692307,0,1,D,0.0033733375000000003,0.0040835137833333335,-0.0003550881666666667,both
1970-01-02 22:32:29.000,1640,7.4287521499999984,3.8791334249999996,-5.748246675,0,1,D,0.0015978967333333332,0.0031957934166666666,-0.0003550881666666667,both
1970-01-02 22:32:29.250,1640,7.428951775000001,3.881528475000001,-5.749843441666667,0,1,D,0.001420352616666667,0.0017754407333333336,-0.00017754408333333334,both
1970-01-02 22:32:29.500,1640,7.42732436923077,3.8799318461538466,-5.754310984615385,0,1,D,0.002891432171428571,0.002130528957142857,0.00045654192857142855,both
1970-01-02 22:32:29.750,1640,7.43294345,3.8763393,-5.754234308333333,0,1,D,0.00213052895,0.0017754408333333332,0.0019529848833333332,both
1970-01-02 22:32:30.000,1640,7.424745053846153,3.872378292307693,-5.746573276923077,0,1,D,0.0010652645000000002,0.0031957934000000003,0.0008877204,both
1970-01-02 22:32:30.250,1640,7.436935074999998,3.8683558999999996,-5.738267433333334,0,1,D,0.007101763133333334,0.02095020145,-0.002130528883333333,both
1970-01-02 22:32:30.500,1640,7.461084966666667,3.8731459083333335,-5.713319375000001,0,1,D,0.0010652644833333334,-0.0008877203833333337,-0.0005326322333333333,both
1970-01-02 22:32:30.750,1640,7.4486952538461555,3.877536823076923,-5.721517715384615,0,1,D,0.0015218064,0.0019783482999999997,-0.0010652644857142856,both
1970-01-02 22:32:31.000,1640,7.433741725,3.8713496500000004,-5.7376687,0,1,D,0.003018249316666667,0.00035508815000000004,-0.0028407052666666664,both
1970-01-02 22:32:31.250,1640,7.450169138461538,3.8767998769230774,-5.725939253846153,0,1,D,0.001775440816666667,0.004438602,0.0010652644666666667,both
1970-01-02 22:32:31.500,1640,7.447712733333334,3.877337216666667,-5.721701958333334,0,1,D,0.0019529848833333334,0.0017754408499999997,0.0,both
1970-01-02 22:32:31.750,1640,7.446116092307691,3.876984053846154,-5.730176607692308,0,1,D,0.001978348314285714,0.0009130838428571428,-0.00045654192857142855,both
1970-01-02 22:32:32.000,1640,7.443920675000001,3.876938041666667,-5.725294474999999,0,1,D,0.002130528966666667,0.0023080730499999997,-0.0008877204,both
1970-01-02 22:32:32.250,1640,7.443920633333334,3.880131441666667,-5.725094825,0,1,D,0.0017754407833333334,0.0017754408166666662,0.0,both
1970-01-02 22:32:32.500,1640,7.445194876923076,3.883984900000001,-5.723728507692308,0,1,D,0.0024856171166666666,0.00284070525,-0.0003550881666666667,both
1970-01-02 22:32:32.750,1640,7.445517349999999,3.8767384499999995,-5.732279883333333,0,1,D,0.0015978967166666667,0.0023080730166666666,-0.00017754408333333312,both
1970-01-02 22:32:33.000,1640,7.442615615384615,3.88214263076923,-5.729623915384615,0,1,D,0.0016739870428571426,0.00045654194285714265,-0.0007609032142857142,both
1970-01-02 22:32:33.250,1640,7.434340500000001,3.8863185166666674,-5.733078241666667,0,1,D,0.0026631612,0.00035508815000000004,-0.0015978967333333332,both
1970-01-02 22:32:33.500,1640,7.4409268583333334,3.8825264166666664,-5.7332778666666675,0,1,D,0.001597896733333333,0.001242808583333333,-0.0003550881666666667,both
1970-01-02 22:32:33.750,1640,7.434140938461538,3.8878538153846156,-5.742888561538463,0,1,D,0.0010652644666666667,-0.0028407053,0.0023080730333333334,both
1970-01-02 22:32:34.000,1640,7.433542216666667,3.877137616666667,-5.739265391666667,0,1,D,0.0010652645000000002,0.0007101763166666667,0.0033733375,both
1970-01-02 22:32:34.250,1640,7.43285136153846,3.8683251692307694,-5.7443624,0,1,D,0.002891432171428571,0.0028914321428571426,0.0018261676999999997,both
1970-01-02 22:32:34.500,1640,7.440527725,3.8707508999999996,-5.744055433333333,0,1,D,0.00159789675,0.0024856170833333336,0.00035508814999999993,both
1970-01-02 22:32:34.750,1640,7.435138925,3.870551341666667,-5.744254950000001,0,1,D,0.0017754408,0.0015978967333333332,-0.00159789675,both
1970-01-02 22:32:35.000,1640,7.437457115384616,3.8734836692307697,-5.743257092307692,0,1,D,0.0023080730499999997,0.0010652644999999997,-0.0019529848833333332,both
1970-01-02 22:32:35.250,1640,7.428153399999999,3.8745430166666672,-5.7498433916666665,0,1,D,0.0014203526500000004,0.005148778400000001,-0.00124280855,both
1970-01-02 22:32:35.500,1640,7.4498006384615385,3.866667069230769,-5.729439653846153,0,1,D,0.0019783482999999997,0.007609031814285715,-0.0007609032428571428,both
1970-01-02 22:32:35.750,1640,7.444918516666665,3.892106508333334,-5.7155148166666665,0,1,D,0.0019529848833333332,0.0010652645166666665,-0.0017754407833333334,both
1970-01-02 22:32:36.000,1640,7.431147200000001,3.8743434750000003,-5.7426582999999995,0,1,D,0.0,0.0030182493,0.00017754405000000006,both
1970-01-02 22:32:36.250,1640,7.445010623076923,3.884721853846154,-5.722807353846154,0,1,D,0.0033733374499999996,0.003018249333333334,-0.0008877204,both
1970-01-02 22:32:36.500,1640,7.4369350999999995,3.8679566916666666,-5.7456521,0,1,D,-0.0007101763333333335,0.002840705116666667,0.0019529848333333332,both
1970-01-02 22:32:36.750,1640,7.4392993692307705,3.880116046153846,-5.722254553846154,0,1,D,0.008369935014285715,0.006239406214285713,-0.005021961357142856,both
1970-01-02 22:32:37.000,1640,7.486033049999999,3.9018861499999997,-5.686974150000001,0,1,D,-0.0010652647499999994,0.003728425716666666,0.004083514083333334,both
1970-01-02 22:32:37.250,1640,7.4221659666666655,3.861170833333334,-5.739065833333334,0,1,D,0.00177544075,0.0026631611166666666,-0.0014203525833333334,both
1970-01-02 22:32:37.500,1640,7.4719085384615385,3.877168353846154,-5.7119375923076925,0,1,D,0.0021305289000000008,-0.0028407052666666664,-2.5000000037437203e-10,both
1970-01-02 22:32:37.750,1640,7.438332225,3.8755409333333333,-5.734475391666667,0,1,D,-0.0012428084166666669,-0.0012428085499999995,0.0008877204333333335,both
1970-01-02 22:32:38.000,1640,7.4400364076923085,3.8755102461538464,-5.737730153846154,0,1,D,0.006391586928571428,-0.0015218063714285718,-0.00045654191428571434,both
1970-01-02 22:32:38.250,1640,7.447912241666668,3.883723958333333,-5.728887016666667,0,1,D,-0.0031957933333333333,-0.00017754409999999992,0.004793690016666667,both
1970-01-02 22:32:38.500,1640,7.43303559230769,3.8618770076923075,-5.748047115384614,0,1,D,0.003905969683333333,0.0033733374166666666,0.0008877204166666666,both
1970-01-02 22:32:38.750,1640,7.452502775,3.8685554750000004,-5.733477416666666,0,1,D,0.0019529848666666667,0.0023080730666666664,-0.0003550881666666668,both
1970-01-02 22:32:39.000,1640,7.444918458333334,3.8719484250000007,-5.7350741166666666,0,1,D,0.0015978967000000001,0.0010652644833333332,-0.0005326322333333333,both
1970-01-02 22:32:39.250,1640,7.433035592307694,3.865009,-5.743625461538461,0,1,D,0.0024348902,0.0013696257142857143,-0.0007609032000000001,both
1970-01-02 22:32:39.500,1640,7.4453177083333335,3.877337216666667,-5.736471166666667,0,1,D,0.0024856171,0.002840705316666667,0.00035508815,both
1970-01-02 22:32:39.750,1640,7.441141792307693,3.8718256,-5.737914330769231,0,1,D,0.0024856171666666664,0.0015978967333333332,-0.0003550881666666667,both
1970-01-02 22:32:40.000,1640,7.436735591666668,3.8717488083333333,-5.743257066666666,0,1,D,0.00159789675,0.0010652644833333334,-0.00017754406666666665,both
1970-01-02 22:32:40.250,1640,7.442124358333333,3.868954641666667,-5.739864108333333,0,1,D,0.001775440816666667,0.0026631612,0.00017754406666666673,both
1970-01-02 22:32:40.500,1640,7.4394837153846165,3.869430607692308,-5.743625592307693,0,1,D,0.002891432157142857,0.0018261676571428573,-0.00015218064285714284,both
1970-01-02 22:32:40.750,1640,7.433342633333332,3.8699525666666665,-5.7428578749999994,0,1,D,0.0008877204166666666,0.0019529848833333334,0.0005326322166666667,both
1970-01-02 22:32:41.000,1640,7.44040486923077,3.870535961538461,-5.741598930769232,0,1,D,0.0023080730666666664,0.0019529849166666665,-0.0007101763333333333,both
1970-01-02 22:32:41.250,1640,7.439330083333334,3.8677571,-5.740862033333333,0,1,D,0.0021305289999999995,0.0017754408333333332,-0.00017754408333333334,both
1970-01-02 22:32:41.500,1640,7.437933058333333,3.872547166666667,-5.746250783333334,0,1,D,0.0015978967166666667,0.0017754408,0.00017754408333333334,both
1970-01-02 22:32:41.750,1640,7.434141,3.865745938461539,-5.742520123076924,0,1,D,0.0024348902428571427,0.0025870708999999998,-0.00015218064285714284,both
1970-01-02 22:32:42.000,1640,7.438731416666666,3.8713497083333333,-5.744654083333334,0,1,D,0.0021305289999999995,0.0019529848833333334,-0.00053263225,both
1970-01-02 22:32:42.250,1640,7.440220615384617,3.872562507692308,-5.745283653846155,0,1,D,0.00142035265,0.00213052895,-0.0008877204,both
1970-01-02 22:32:42.500,1640,7.438930974999999,3.8683558916666665,-5.748645783333333,0,1,D,0.0019529848833333332,0.0023080730666666664,0.0003550881666666667,both
1970-01-02 22:32:42.750,1640,7.437933058333333,3.8667592249999996,-5.744654091666667,0,1,D,0.002663161233333334,0.002130528983333333,-0.0007101763333333333,both
1970-01-02 22:32:43.000,1640,7.443352538461538,3.8609558692307684,-5.739203930769231,0,1,D,0.0022827096285714284,-0.00045654187142857137,-0.0010652645,both
1970-01-02 22:32:43.250,1640,7.428951766666667,3.8831251666666673,-5.745452558333334,0,1,D,0.0007101762166666667,0.004438601933333334,-0.0007101762499999997,both
1970-01-02 22:32:43.500,1640,7.427877007692307,3.8618770538461535,-5.749705153846154,0,1,D,0.004438601933333334,0.007279307133333333,-0.0010652644833333332,both
1970-01-02 22:32:43.750,1640,7.4586898999999995,3.882925583333334,-5.721701974999999,0,1,D,-0.0007101763333333331,0.00656913065,-0.0008877204,both
1970-01-02 22:32:44.000,1640,7.446714758333333,3.8747425749999995,-5.734874483333333,0,1,D,0.0035508815333333333,0.0017754408166666665,-0.00124280855,both
1970-01-02 22:33:35.000,1640,3.42487815,-8.6759585,-1.3208533,0,1,E,,,,left_only
1970-01-02 22:33:35.250,1640,3.48814655,-8.698112541666667,-1.3408118416666666,0,1,E,,,,left_only
1970-01-02 22:33:35.500,1640,3.468187991666667,-8.684540583333334,-1.3855188333333335,0,1,E,,,,left_only
1970-01-02 22:33:35.750,1640,3.532285507692308,-8.653574461538462,-1.4307478923076924,0,1,E,,,,left_only
1970-01-02 22:33:36.000,1640,3.5202796999999997,-8.652407666666667,-1.4759308416666668,0,1,E,,,,left_only
1970-01-02 22:33:36.250,1640,3.556972607692307,-8.636440884615386,-1.5160474153846155,0,1,E,,,,left_only
1970-01-02 22:33:36.500,1640,3.5546082833333337,-8.625862666666668,-1.6178357749999996,0,1,E,,,,left_only
1970-01-02 22:33:36.750,1640,3.4985709615384617,-8.634414384615384,-1.6059527923076924,0,1,E,,,,left_only
1970-01-02 22:33:37.000,1640,3.771756741666667,-8.522877083333332,-1.6930793166666664,0,1,E,,,,left_only
1970-01-02 22:33:37.250,1640,3.7492036333333325,-8.560199291666667,-1.6330042,0,1,E,,,,left_only
1970-01-02 22:33:37.500,1640,3.5134937769230774,-8.614517153846153,-1.826663053846154,0,1,E,,,,left_only
1970-01-02 22:33:37.750,1640,3.5901344250000005,-8.575367875,-1.9914588416666668,0,1,E,,,,left_only
1970-01-02 22:33:38.000,1640,3.799974976923077,-8.54358773076923,-1.5635793615384617,0,1,E,,,,left_only
1970-01-02 22:33:38.250,1640,3.561992924999999,-8.624465666666667,-1.3232483416666667,0,1,E,,,,left_only
1970-01-02 22:33:38.500,1640,3.7086878999999993,-8.617879499999999,-1.2563873916666666,0,1,E,,,,left_only
1970-01-02 22:33:38.750,1640,4.075033815384615,-8.53234966923077,-1.1717172946153847,0,1,E,,,,left_only
1970-01-02 22:33:39.000,1640,3.602309108333333,-8.608499,-1.2992981666666665,0,1,E,,,,left_only
1970-01-02 22:33:39.250,1640,3.602478,-8.689131076923077,-1.412324676923077,0,1,E,,,,left_only
1970-01-02 22:33:39.500,1640,3.654001641666667,-8.586145083333333,-1.3096765666666668,0,1,E,,,,left_only
1970-01-02 22:33:39.750,1640,3.5959223749999993,-8.578960333333333,-1.535606741666667,0,1,E,,,,left_only
1970-01-02 22:33:40.000,1640,3.694041438461539,-8.583934461538464,-1.7037801307692306,0,1,E,,,,left_only
1970-01-02 22:33:40.250,1640,3.675955933333333,-8.56099775,-1.8343854416666663,0,1,E,,,,left_only
1970-01-02 22:33:40.500,1640,3.6337974769230765,-8.525348730769231,-2.0446098538461537,0,1,E,,,,left_only
1970-01-02 22:33:40.750,1640,3.711681691666667,-8.516290416666665,-1.9726978250000002,0,1,E,,,,left_only
1970-01-02 22:33:41.000,1640,3.9318239083333335,-8.566186958333333,-1.5577606666666666,0,1,E,,,,left_only
1970-01-02 22:33:41.250,1640,4.174703430769231,-8.590566923076922,-1.0429389346153848,0,1,E,,,,left_only
1970-01-02 22:33:41.500,1640,3.777943816666667,-8.618078958333333,0.05109376750000002,0,1,E,,,,left_only
1970-01-02 22:33:41.750,1640,4.2336577538461535,-8.142698246153847,0.46113340076923076,0,1,E,,,,left_only
1970-01-02 22:33:42.000,1640,4.237787625,-8.369994866666667,-0.5043511998333333,0,1,E,,,,left_only
1970-01-02 22:33:42.250,1640,3.8785346749999996,-8.916458466666667,-1.2505994166666665,0,1,E,,,,left_only
1970-01-02 22:33:42.500,1640,3.786341830769231,-8.638651653846152,-1.6155328769230768,0,1,E,,,,left_only
1970-01-02 22:33:42.750,1640,3.9252375916666664,-8.514893458333333,-1.595681825,0,1,E,,,,left_only
1970-01-02 22:33:43.000,1640,3.9853127000000006,-8.47413223076923,-1.5138366538461538,0,1,E,,,,left_only
1970-01-02 22:33:43.250,1640,4.0382027,-8.473978541666666,-1.4286292166666668,0,1,E,,,,left_only
1970-01-02 22:33:43.500,1640,4.03301355,-8.477371666666668,-1.3384167833333336,0,1,E,,,,left_only
1970-01-02 22:33:43.750,1640,4.02197493076923,-8.496792692307695,-1.253700653846154,0,1,E,,,,left_only
1970-01-02 22:33:44.000,1640,4.067741316666667,-8.445438083333332,-1.3404126500000002,0,1,E,,,,left_only
1970-01-02 22:33:44.250,1640,3.949387376923077,-8.479106461538462,-1.398507246153846,0,1,E,,,,left_only
1970-01-02 22:33:44.500,1640,4.000481158333333,-8.583950041666668,-1.332429275,0,1,E,,,,left_only
1970-01-02 22:33:44.750,1640,3.806238884615385,-8.552799423076923,-1.4615146692307692,0,1,E,,,,left_only
1970-01-02 22:33:45.000,1640,3.9483894749999995,-8.503716875,-1.345801458333333,0,1,E,,,,left_only
1970-01-02 22:33:45.250,1640,3.938809391666666,-8.540041208333333,-1.3024915,0,1,E,,,,left_only
1970-01-02 22:33:45.500,1640,4.123855346153847,-8.458288192307693,-1.2402516999999997,0,1,E,,,,left_only
1970-01-02 22:33:45.750,1640,3.9930964583333335,-8.50710975,-1.2250525749999999,0,1,E,,,,left_only
1970-01-02 22:33:46.000,1640,3.991760792307692,-8.491818461538461,-1.2614384153846154,0,1,E,,,,left_only
1970-01-02 22:33:46.250,1640,3.9412043999999997,-8.540839583333332,-1.280337575,0,1,E,,,,left_only
1970-01-02 22:33:46.500,1640,3.964954983333334,-8.527666916666666,-1.283131775,0,1,E,,,,left_only
1970-01-02 22:33:46.750,1640,3.9937873769230765,-8.500661692307691,-1.2732292846153845,0,1,E,,,,left_only
1970-01-02 22:33:47.000,1640,3.9547761833333333,-8.517288625,-1.3384168083333332,0,1,E,,,,left_only
1970-01-02 22:33:47.250,1640,3.948281992307692,-8.510425846153847,-1.3848740615384616,0,1,E,,,,left_only
1970-01-02 22:33:47.500,1640,3.9513832416666657,-8.519683541666668,-1.3535852833333335,0,1,E,,,,left_only
1970-01-02 22:33:47.750,1640,3.9102687166666663,-8.540240916666667,-1.3633649333333333,0,1,E,,,,left_only
1970-01-02 22:33:48.000,1640,3.925989869230769,-8.530138615384615,-1.3498699153846152,0,1,E,,,,left_only
1970-01-02 22:33:48.250,1640,3.9791255666666667,-8.518685708333333,-1.2428156166666666,0,1,E,,,,left_only
1970-01-02 22:33:48.500,1640,3.875141730769231,-8.550956846153845,-1.2942317692307694,0,1,E,,,,left_only
1970-01-02 22:33:48.750,1640,3.9948927333333324,-8.509105583333335,-1.190524325,0,1,E,,,,left_only
1970-01-02 22:33:49.000,1640,3.879133524999999,-8.557005875,-1.2583832083333333,0,1,E,,,,left_only
1970-01-02 22:33:49.250,1640,3.7493111615384622,-8.578776,-1.4462233923076924,0,1,E,,,,left_only
1970-01-02 22:33:49.500,1640,3.7054945333333333,-8.561995666666666,-1.5671412,0,1,E,,,,left_only
1970-01-02 22:33:49.750,1640,3.7050953769230763,-8.593146307692308,-1.556210076923077,0,1,E,,,,left_only
1970-01-02 22:33:50.000,1640,3.8078816583333333,-8.570178583333332,-1.5080640333333333,0,1,E,,,,left_only
1970-01-02 22:33:50.250,1640,3.899091958333333,-8.515891500000002,-1.401485658333333,0,1,E,,,,left_only
1970-01-02 22:33:50.500,1640,4.064164076923077,-8.459946192307694,-1.288520553846154,0,1,E,,,,left_only
1970-01-02 22:33:50.750,1640,3.977528916666667,-8.476573291666666,-1.45736945,0,1,E,,,,left_only
1970-01-02 22:33:51.000,1640,3.843638046153846,-8.518163615384614,-1.7152024999999997,0,1,E,,,,left_only
1970-01-02 22:33:51.250,1640,3.7290455916666665,-8.55261525,-1.7794996,0,1,E,,,,left_only
1970-01-02 22:33:51.500,1640,3.7972115461538465,-8.556115384615383,-1.5329967999999998,0,1,E,,,,left_only
1970-01-02 22:33:51.750,1640,4.010260733333333,-8.5278665,-1.1326447033333331,0,1,E,,,,left_only
1970-01-02 22:33:52.000,1640,3.9759321666666665,-8.53585,-1.0274634416666666,0,1,E,,,,left_only
1970-01-02 22:33:52.250,1640,3.956019707692308,-8.539718884615384,-1.027279176923077,0,1,E,,,,left_only
1970-01-02 22:33:52.500,1640,4.00586995,-8.532257541666667,-1.0286609283333332,0,1,E,,,,left_only
1970-01-02 22:33:52.750,1640,3.9913923538461544,-8.53400776923077,-1.0447812769230769,0,1,E,,,,left_only
1970-01-02 22:33:53.000,1640,3.9843147583333334,-8.541039249999999,-1.0737671416666668,0,1,E,,,,left_only
1970-01-02 22:33:53.250,1640,3.985113083333333,-8.538245208333333,-1.0973181416666666,0,1,E,,,,left_only
1970-01-02 22:33:53.500,1640,4.017553315384616,-8.511715692307694,-1.152004423076923,0,1,E,,,,left_only
1970-01-02 22:33:53.750,1640,4.0419948166666675,-8.502519166666668,-1.1895264083333335,0,1,E,,,,left_only
1970-01-02 22:33:54.000,1640,4.032476138461538,-8.485185923076923,-1.3074965076923075,0,1,E,,,,left_only
1970-01-02 22:33:54.250,1640,4.023832566666667,-8.47916775,-1.3883130666666668,0,1,E,,,,left_only
1970-01-02 22:33:54.500,1640,3.9623603999999997,-8.504116250000001,-1.4062757083333333,0,1,E,,,,left_only
