timestamp,id,activity,phone,watch,Acceleration x (m/s^2),Acceleration y (m/s^2),Acceleration z (m/s^2),Gyroscope x (m/s^2),Gyroscope y (m/s^2),Gyroscope z (m/s^2),_merge
1970-01-03 01:14:27.000,1621.0,A,0.0,1.0,-4.573972775,-8.353220425,2.0709845075,0.7736920666666666,-0.3555135466666666,0.16510692999999999,both
1970-01-03 01:14:27.250,1621.0,A,0.0,1.0,-2.86570978,-7.348732580000001,-0.9806651799999999,-3.9694331739999997,0.89411265,-0.6836957700000001,both
1970-01-03 01:14:27.500,1621.0,A,0.0,1.0,-2.07370788,-7.208911359999999,-7.48283792,-0.21290226439999999,-0.04584631319999999,-0.40843159599999995,both
1970-01-03 01:14:27.750,1621.0,A,0.0,1.0,-2.8425658833333336,-4.964826116666666,-8.095992916666665,-1.3921971133333333,-0.61574255,-0.3728518616666667,both
1970-01-03 01:14:28.000,1621.0,A,0.0,1.0,-3.2090383200000003,-5.27822702,-6.037697860000001,0.850211724,-0.022588931999999996,-0.08416521199999999,both
1970-01-03 01:14:28.250,1621.0,A,0.0,1.0,-2.3624486,-5.90502918,-6.906793,0.22297851,1.10766622,-0.8249501159999998,both
1970-01-03 01:14:28.500,1621.0,A,0.0,1.0,2.12763724,-8.34950908,-8.553524999999999,0.8009870079999999,0.411416318,-0.10078344400000001,both
1970-01-03 01:14:28.750,1621.0,A,0.0,1.0,0.5661389320000001,-6.81961412,-3.9571365799999993,1.327434782,0.7297276930000001,-0.18366117,both
1970-01-03 01:14:29.000,1621.0,A,0.0,1.0,4.41984592,-8.77136732,-3.8206671200000004,-0.255548958,0.025163137999999984,-1.1504952000000002,both
1970-01-03 01:14:29.250,1621.0,A,0.0,1.0,5.724685859999999,-6.653935339999999,-4.27269238,-0.7824319018,-0.0006109286000000047,-0.20603173436,both
1970-01-03 01:14:29.500,1621.0,A,0.0,1.0,5.616467999999999,-6.47101828,-4.438371139999999,-0.326498734,0.358383188,-0.33151987439999997,both
1970-01-03 01:14:29.750,1621.0,A,0.0,1.0,5.831946240000001,-6.0778905,-5.854780819999999,0.9952698680000001,-0.74393248,-0.26078631399999996,both
1970-01-03 01:14:30.000,1621.0,A,0.0,1.0,7.466228339999999,-6.3446045600000005,-3.9226600599999997,0.12665327200000004,-0.785903906,0.157010392,both
1970-01-03 01:14:30.250,1621.0,A,0.0,1.0,4.20724084,-7.248654999999999,-3.55203762,1.32826667,-0.12521837799999996,0.28931624,both
1970-01-03 01:14:30.500,1621.0,A,0.0,1.0,4.69996744,-8.369620280000001,-2.3060950520000003,0.5403958839999998,-0.12031601680000001,-0.035802468799999994,both
1970-01-03 01:14:30.750,1621.0,A,0.0,1.0,2.42739136,-8.2676275,1.86747736,1.7371088200000002,-0.675736118,0.0587928492,both
1970-01-03 01:14:31.000,1621.0,A,0.0,1.0,6.47167706,-9.411097979999997,3.1531636224,0.70315974,-0.9443899519999999,0.30252524140000003,both
1970-01-03 01:14:31.250,1621.0,A,0.0,1.0,2.8171673675200006,-6.07310188,-0.453940618,-0.040819994999999984,-1.0117162351200002,-0.8027931340000001,both
1970-01-03 01:14:31.500,1621.0,A,0.0,1.0,7.730547939999999,-7.274033520000001,-1.9876662300000003,-2.14727258,0.42361864800000004,0.88032466,both
1970-01-03 01:14:31.750,1621.0,A,0.0,1.0,3.3414975119999992,-7.166773359999999,-2.5646688600000003,-1.2939960199999998,0.8789134539999999,0.36580195520000003,both
1970-01-03 01:14:32.000,1621.0,A,0.0,1.0,6.0541281,-8.796746,-5.222711540000001,0.27066265112,-0.232793302,-0.17641764633919998,both
1970-01-03 01:14:32.250,1621.0,A,0.0,1.0,5.0160022,-7.088722300000001,-1.2354080399999998,2.359646154,-0.6644384329999999,-0.890144798,both
1970-01-03 01:14:32.500,1621.0,A,0.0,1.0,7.74347682,-7.408587940000001,0.446279206,-3.37573752,0.40636535939999996,1.0918861679999998,both
1970-01-03 01:14:32.750,1621.0,A,0.0,1.0,4.89198256,-5.66752436,-4.72567542,0.12152561400000003,1.67083424,-0.10120996199999999,both
1970-01-03 01:14:33.000,1621.0,A,0.0,1.0,6.656988059999999,-8.21303984,-4.05194694,0.9892900339999999,-0.53000208,-0.11015819800000001,both
1970-01-03 01:14:33.250,1621.0,A,0.0,1.0,6.0842949399999995,-5.16378428,-1.7841591400000003,0.6221999100000001,-0.569629914,-1.028203092,both
1970-01-03 01:14:33.500,1621.0,A,0.0,1.0,8.73754912,-9.35459492,-2.6858154999999995,-0.48354504,0.6594730120000001,1.19479073,both
1970-01-03 01:14:33.750,1621.0,A,0.0,1.0,3.50526092,-10.5071634,0.25953147000000004,1.36596674,0.2704389468,4.356282780000001,both
1970-01-03 01:14:34.000,1621.0,A,0.0,1.0,-6.751977999999999,-3.9671622400000004,-0.29113493,0.32840313700000007,-0.9727315759999999,4.31665482,both
1970-01-03 01:14:34.250,1621.0,A,0.0,1.0,-5.91927462,-0.12159554839999998,4.05434114,-2.0047331,-0.6866119354,1.79730428,both
1970-01-03 01:14:34.500,1621.0,A,0.0,1.0,-8.58162692,-0.345692792,6.58357582,0.29325376059999997,0.150901635,-0.27378281800000004,both
1970-01-03 01:14:34.750,1621.0,A,0.0,1.0,-7.570316200000001,0.623480058,3.5084631600000002,3.2110068600000004,-0.002059698000000015,-1.2768358,both
1970-01-03 01:14:35.000,1621.0,A,0.0,1.0,-10.5343376,1.5825972,2.9060819999999996,-0.7922569,0.031602665999999995,-0.699462486,both
1970-01-03 01:14:35.250,1621.0,A,0.0,1.0,-4.971649640000001,-3.9130532340000004,3.0923509000000005,-1.3530166039999998,-0.9808166999999999,-1.8471783600000002,both
1970-01-03 01:14:35.500,1621.0,A,0.0,1.0,2.20089988,-8.025334099999998,5.65414676,-0.677851966,-2.3021706799999997,-3.41013436,both
1970-01-03 01:14:35.750,1621.0,A,0.0,1.0,3.358256946,-10.515783,3.551079912,-2.3518059620000002,0.6183540380000001,-1.1406950128,both
1970-01-03 01:14:36.000,1621.0,A,0.0,1.0,6.700083640000001,-8.7287505,0.7240066,-0.1863358,0.09402982500000003,-0.196018506,both
1970-01-03 01:14:36.250,1621.0,A,0.0,1.0,5.70361682,-6.55720972,0.13215995999999994,-0.18718480799999998,-0.5636700300000002,-0.74825159,both
1970-01-03 01:14:36.500,1621.0,A,0.0,1.0,9.323171199999999,-6.494960539999999,-0.5415683600000001,0.7758163679999999,-0.113492996,0.170645506,both
1970-01-03 01:14:36.750,1621.0,A,0.0,1.0,5.185990540000001,-6.82152952,1.8751387720000001,-0.463299848,0.6307018,0.3574928828,both
1970-01-03 01:14:37.000,1621.0,A,0.0,1.0,6.16857102,-9.5782132,0.7800309239999998,0.18011891200000002,0.6394385679999999,0.5941946619999999,both
1970-01-03 01:14:37.250,1621.0,A,0.0,1.0,3.2792483000000003,-7.846726540000001,1.3737929279999999,0.040569904000000025,-0.22555723600000005,1.10530854,both
1970-01-03 01:14:37.500,1621.0,A,0.0,1.0,2.38621106,-10.6192122,1.237802284,-0.353362304,0.27170394800000014,0.6583235404,both
1970-01-03 01:14:37.750,1621.0,A,0.0,1.0,-1.754321478,-7.82613666,1.1214440460000001,0.14859027779999998,0.2261106248,0.726500486,both
1970-01-03 01:14:38.000,1621.0,A,0.0,1.0,-1.34491284,-9.956497459999998,3.6272155299999995,2.58505986,-2.05610656,1.6803383,both
1970-01-03 01:14:38.250,1621.0,A,0.0,1.0,-1.06407304,-4.1184759,7.6770077,0.09717031833333334,-0.620627245,0.9127442116666669,both
1970-01-03 01:14:38.500,1621.0,A,0.0,1.0,-0.97333278,-5.18916296,9.55478006,0.027150925999999985,0.32432668,-0.54329471,both
1970-01-03 01:14:38.750,1621.0,A,0.0,1.0,-2.4917354400000002,-2.79208804,7.67245882,0.9767276232000001,0.340305643,-0.9414905720000002,both
1970-01-03 01:14:39.000,1621.0,A,0.0,1.0,-2.99020831,-5.4726363000000005,9.2784891,-0.95588,-0.167390847,0.37176743,both
1970-01-03 01:14:39.250,1621.0,A,0.0,1.0,-1.007330444,-4.61168136,7.1610575,-0.45286337000000004,-0.8031385467999999,0.889059806,both
1970-01-03 01:14:39.500,1621.0,A,0.0,1.0,-0.189949968,-5.818359,9.4408162,-0.0382582814,0.33349141400000004,-0.431655,both
1970-01-03 01:14:39.750,1621.0,A,0.0,1.0,-2.4740183940000002,-5.70583154,6.4806252,-0.21018919600000002,0.673092946,-0.7710482414000001,both
1970-01-03 01:14:40.000,1621.0,A,0.0,1.0,-2.68039858,-7.34059262,7.45362866,0.273440858,-0.725812328,0.45592331599999997,both
1970-01-03 01:14:40.250,1621.0,A,0.0,1.0,-0.7707833,-7.782562260000001,3.4170045979999997,-2.884855154,0.3358301920000001,0.49448592700000005,both
1970-01-03 01:14:40.500,1621.0,A,0.0,1.0,-2.71391741,-8.86234716,3.01765174,2.03687854,-0.304604896,0.2217781974,both
1970-01-03 01:14:40.750,1621.0,A,0.0,1.0,-1.8342876799999999,-6.9833777999999995,6.12053718,-0.18782423439999996,0.5989598340000001,-0.874591942,both
1970-01-03 01:14:41.000,1621.0,A,0.0,1.0,-2.6607661599999997,-7.108833880000001,5.969223680000001,0.3158327868,-0.513176236,0.22710452,both
1970-01-03 01:14:41.250,1621.0,A,0.0,1.0,-0.3173215048000001,-7.069568820000001,6.892427700000001,0.15860453600000005,-0.34742906400000007,0.05495779214000003,both
1970-01-03 01:14:41.500,1621.0,A,0.0,1.0,0.327197606,-7.36644974,5.8950034,-0.5112337339999999,0.6085392260000001,-0.536690066,both
1970-01-03 01:14:41.750,1621.0,A,0.0,1.0,-2.73881712,-8.81637844,5.6340354,-0.10665544119999999,-0.008232894000000001,0.37368491400000003,both
1970-01-03 01:14:42.000,1621.0,A,0.0,1.0,-1.596782852,-6.43031692,5.394615420000001,-0.02931954719999997,-0.17078825000000003,0.1414572586,both
1970-01-03 01:14:42.250,1621.0,A,0.0,1.0,-2.1522376999999997,-9.0452642,4.8477795,-0.8314623720000001,-0.45351184,0.225826203,both
1970-01-03 01:14:42.500,1621.0,A,0.0,1.0,0.19216463199999997,-8.03969938,5.231330659999999,0.4698654787999999,-0.215746416,-0.092687864,both
1970-01-03 01:14:42.750,1621.0,A,0.0,1.0,-2.3021146800000003,-9.2889938,4.79079758,-0.9049641180000002,0.1696652002,-0.3506949074,both
1970-01-03 01:14:43.000,1621.0,A,0.0,1.0,-0.4552275440000001,-7.47658308,5.43962636,1.0610888219999999,-0.82912832,0.6001601080000001,both
1970-01-03 01:14:43.250,1621.0,A,0.0,1.0,-0.6280889,-8.415110299999998,6.5179747599999995,-0.010353305999999974,-0.45820451460000006,0.31147346319999997,both
1970-01-03 01:14:43.500,1621.0,A,0.0,1.0,-0.07933786139999999,-7.44545866,5.94815472,0.3524789564,0.65179589,-0.2837963,both
1970-01-03 01:14:43.750,1621.0,A,0.0,1.0,-1.50963395,-6.07453878,6.632896239999999,0.2463786060000001,0.34137783399999994,-0.37008272200000003,both
1970-01-03 01:14:44.000,1621.0,A,0.0,1.0,-2.10483256,-8.198674700000002,4.57100996,-1.3272331999999998,-0.463104532,-0.13551149119999997,both
1970-01-03 01:14:44.250,1621.0,A,0.0,1.0,-0.894324108,-9.0720791,6.3805475,0.863163522,-0.6009497500000001,0.3721935352,both
1970-01-03 01:14:44.500,1621.0,A,0.0,1.0,-0.381007284,-5.8729465,7.64372814,2.80471872,-0.13458444320000001,0.1791676246,both
1970-01-03 01:14:44.750,1621.0,A,0.0,1.0,-0.8713398,0.43194391339999993,9.05534936,0.8248193629999999,0.296845782,-0.310854024,both
1970-01-03 01:14:45.000,1621.0,A,0.0,1.0,0.751929,0.03259106399999991,5.36780028,-3.28539652,0.347338524,-3.3072297400000004,both
1970-01-03 01:14:45.250,1621.0,A,0.0,1.0,13.0838637,-4.8463131200000005,0.58849474,-2.7717256200000002,0.4321330339999999,-4.63050116,both
1970-01-03 01:14:45.500,1621.0,A,0.0,1.0,10.337354799999998,-4.93202562,-0.4118026840000001,-2.0251910000000004,0.8120111299999999,-1.532499268,both
1970-01-03 01:14:45.750,1621.0,A,0.0,1.0,8.2012482,-4.7701775,1.6773777199999997,-0.22042423799999997,-0.0052525528000000096,-0.574187374,both
1970-01-03 01:14:46.000,1621.0,A,0.0,1.0,12.189030599999999,-4.42158184,-0.04405332599999999,0.9085429919999999,-0.7049182340000001,2.40684862,both
1970-01-03 01:14:46.250,1621.0,A,0.0,1.0,9.5803083,-2.22705652,1.104205786,1.0809028,-0.13819753799999995,1.623240054,both
1970-01-03 01:14:46.500,1621.0,A,0.0,1.0,9.7876461,-3.2172983000000004,2.5416845599999998,-0.78906239,0.48093413199999996,-2.6393090200000002,both
1970-01-03 01:14:46.750,1621.0,A,0.0,1.0,8.740901,-5.081902620000001,0.33614591093999996,-1.327873948,0.9852316200000001,-1.61111576,both
1970-01-03 01:14:47.000,1621.0,A,0.0,1.0,11.568453600000002,-5.059397259999999,0.30119057600000004,1.40538156,-1.19131664,2.081729936,both
1970-01-03 01:14:47.250,1621.0,A,0.0,1.0,10.486753000000002,-1.192282558,1.70371396,1.1060373260000003,-0.18527238999999998,2.48099078,both
1970-01-03 01:14:47.500,1621.0,A,0.0,1.0,10.92776512,-3.2752379400000002,2.63074884,-0.626723012,0.6473404119999999,-3.4114129999999996,both
1970-01-03 01:14:47.750,1621.0,A,0.0,1.0,8.840021340000002,-4.72133584,0.31028855600000005,-2.10041214,0.96777595,-1.49564139,both
1970-01-03 01:14:48.000,1621.0,A,0.0,1.0,11.5368498,-5.47119998,-0.28395234399999997,1.6352556999999996,-1.6161267920000004,1.980955634,both
1970-01-03 01:14:48.250,1621.0,A,0.0,1.0,10.3785356,-1.65579998,2.04752134,1.445854454,-0.3316357200000001,2.6239491399999997,both
1970-01-03 01:14:48.500,1621.0,A,0.0,1.0,10.4019984,-3.364781119999999,2.2629994800000004,-1.4495301,0.951787654,-2.857688512,both
1970-01-03 01:14:48.750,1621.0,A,0.0,1.0,9.214474319999999,-5.1546863,-0.250912362,-1.74567455,1.49976128,-1.7683491,both
1970-01-03 01:14:49.000,1621.0,A,0.0,1.0,11.20357688,-5.9667996400000005,-0.516668726,1.17357253,-1.3971124495,1.624092046,both
1970-01-03 01:14:49.250,1621.0,A,0.0,1.0,10.0256298,-2.30223448,1.42455002,1.5025262019999999,-0.946505556,2.6603812600000003,both
1970-01-03 01:14:49.500,1621.0,A,0.0,1.0,10.24781146,-2.7250504799999997,3.30256182,-0.6970281000000002,0.66011962,-2.4758977399999997,both
1970-01-03 01:14:49.750,1621.0,A,0.0,1.0,9.0301208,-4.15438886,0.12354081200000003,-2.0546010600000004,1.36937266,-1.60387226,both
1970-01-03 01:14:50.000,1621.0,A,0.0,1.0,10.5844364,-6.4489917000000005,-0.5200206100000001,0.29025961999999994,-0.9767667679999998,0.760162562,both
1970-01-03 01:14:50.250,1621.0,A,0.0,1.0,9.435698400000001,-2.5775676600000006,1.1027693079999998,2.5053706399999998,-1.342365807,2.1748337600000003,both
1970-01-03 01:14:50.500,1621.0,A,0.0,1.0,10.000251,-2.80693214,3.17710568,-0.654203176,0.3759049092,-1.2389126440000002,both
1970-01-03 01:14:50.750,1621.0,A,0.0,1.0,9.32939596,-3.6305375,1.0395623976,-2.0886878999999996,1.0966622959999999,-1.9038507120000001,both
1970-01-03 01:14:51.000,1621.0,A,0.0,1.0,10.3713526,-6.4877778799999986,-0.675164866,-0.1605596160000001,-0.46671924000000004,0.3826328399999999,both
1970-01-03 01:14:51.250,1621.0,A,0.0,1.0,9.3179038,-2.78490546,1.14347070268,2.5279542,-1.407773046,2.36104192,both
1970-01-03 01:14:51.500,1621.0,A,0.0,1.0,9.9552403,-2.16624374,3.5391088799999997,-0.41388074599999997,0.3045343212,-1.1421866399999998,both
1970-01-03 01:14:51.750,1621.0,A,0.0,1.0,9.1397753,-3.51226402,1.45711118,-1.1122711249,0.6782344100000001,-2.159940272,both
1970-01-03 01:14:52.000,1621.0,A,0.0,1.0,10.7247367,-6.05921574,-0.013407523999999994,-0.49505688000000003,-0.673586132,0.598455428,both
1970-01-03 01:14:52.250,1621.0,A,0.0,1.0,9.235543400000001,-2.65705508,0.6229712719999999,2.6619583600000003,-1.2903702680000002,2.2617593200000004,both
1970-01-03 01:14:52.500,1621.0,A,0.0,1.0,10.3330454,-2.42529637,2.1921311,-0.47865419000000003,0.2382842106,-0.837307942,both
1970-01-03 01:14:52.750,1621.0,A,0.0,1.0,8.992771300000001,-2.71020644,2.0384233400000005,-0.5197685200000001,0.36717268360000005,-2.09772881,both
1970-01-03 01:14:53.000,1621.0,A,0.0,1.0,9.910708,-5.302169279999999,0.9500192340000002,-0.9241416800000002,-0.263892098,0.20025959599999998,both
1970-01-03 01:14:53.250,1621.0,A,0.0,1.0,8.740901220000001,-3.65064888,1.06398324,2.05092388,-1.2060031599999999,1.85631968,both
1970-01-03 01:14:53.500,1621.0,A,0.0,1.0,10.446530599999999,-2.2222681399999997,2.32429098,-0.745185444,0.571076816,0.580132892,both
1970-01-03 01:14:53.750,1621.0,A,0.0,1.0,9.4500638,-2.75617506,1.9665973395999998,-1.61699672,0.8356863612,-2.5400266,both
1970-01-03 01:14:54.000,1621.0,A,0.0,1.0,9.5142284,-5.78531898,0.06751649999999998,-1.4124642219999999,0.304755382,-0.981544778,both
1970-01-03 01:14:54.250,1621.0,A,0.0,1.0,9.01719212,-4.68015554,2.110728232,1.0889898720000002,-1.34470032,2.1516109599999997,both
1970-01-03 01:14:54.500,1621.0,A,0.0,1.0,10.12139786,-2.13176724,2.1523872600000002,-0.18677013999999997,0.41916344200000005,-0.74612133,both
1970-01-03 01:14:54.750,1621.0,A,0.0,1.0,9.27337168,-2.6747722,2.305616188,-1.4297206499999997,0.855282738,-1.337130014,both
1970-01-03 01:14:55.000,1621.0,A,0.0,1.0,9.695708719999999,-5.56601019,-0.6186617200000001,-2.06632348,0.5175952,-0.695840832,both
1970-01-03 01:14:55.250,1621.0,A,0.0,1.0,9.71629898,-3.6573525599999996,-0.20494366000000003,2.4506107200000002,-1.944657,2.7358020000000005,both
1970-01-03 01:14:55.500,1621.0,A,0.0,1.0,10.49058384,-2.537345054,2.0221427600000004,0.14346035600000012,0.15625857800000004,-0.018971812000000022,both
1970-01-03 01:14:55.750,1621.0,A,0.0,1.0,9.824038400000001,-3.3197702,1.6721105159999996,-0.9708063960000001,0.985460666,-2.6712672200000003,both
1970-01-03 01:14:56.000,1621.0,A,0.0,1.0,9.9145387,-5.59809228,-1.6903063,-2.0024084000000006,0.21570060400000016,-0.7599697100000001,both
1970-01-03 01:14:56.250,1621.0,A,0.0,1.0,10.1802949,-4.19461156,-0.18531122299999997,3.321996204,-2.08527054,2.12604464,both
1970-01-03 01:14:56.500,1621.0,A,0.0,1.0,10.711807860000002,-1.5983390999999998,1.4480131699999998,-0.23556236,0.607720566,0.9382746679999998,both
1970-01-03 01:14:56.750,1621.0,A,0.0,1.0,9.2757658,-2.8988694799999997,2.33434662,-0.747956794,0.64990904,-3.19963864,both
1970-01-03 01:14:57.000,1621.0,A,0.0,1.0,10.771663059999998,-5.893058079999999,-0.40557777,-2.1575140599999996,0.547642602,-1.248287188,both
1970-01-03 01:14:57.250,1621.0,A,0.0,1.0,10.5873099,-4.593964339999999,-0.45872906599999996,2.7471789919999994,-2.29171748,2.79247404,both
1970-01-03 01:14:57.500,1621.0,A,0.0,1.0,10.59688642,-1.3249213359999998,1.9737798999999998,0.4310810719999999,0.099375062,1.0786766656000002,both
1970-01-03 01:14:57.750,1621.0,A,0.0,1.0,10.72760966,-2.9596822,2.3060949879999995,-0.9039077426000001,0.62156637,-3.6672895,both
1970-01-03 01:14:58.000,1621.0,A,0.0,1.0,10.4087022,-6.017077840000001,-0.303584776,-2.2996171700000003,0.520579273,-1.0126504920000001,both
1970-01-03 01:14:58.250,1621.0,A,0.0,1.0,10.272232800000001,-3.7440226200000004,0.221703088,2.11973832,-1.9497678599999997,2.9854997599999997,both
1970-01-03 01:14:58.500,1621.0,A,0.0,1.0,10.47430286,-1.6830938642000004,2.12317806,0.19054437999999996,0.292614022,0.883093802,both
1970-01-03 01:14:58.750,1621.0,A,0.0,1.0,10.978043,-3.3925539000000002,1.4441824859999999,-1.15381664,1.008893016,-3.4761811199999997,both
1970-01-03 01:14:59.000,1621.0,A,0.0,1.0,9.848459000000002,-5.48987462,-0.389776048,-2.2388932,0.635195074,-1.09552808,both
1970-01-03 01:14:59.250,1621.0,A,0.0,1.0,12.077939600000002,-4.78981,-0.6713341526000001,2.1188844199999997,-2.4088939,2.7038439399999996,both
1970-01-03 01:14:59.500,1621.0,A,0.0,1.0,9.175209,-1.95028678,1.3771448188000002,1.4098351140000003,-0.695932713,1.6707503200000002,both
1970-01-03 01:14:59.750,1621.0,A,0.0,1.0,11.767651,-3.5022082999999995,1.8861520779999998,-1.7216149800000005,0.95905996,-3.5117611,both
1970-01-03 01:15:00.000,1621.0,A,0.0,1.0,8.45263938,-4.176894320000001,-1.1348515840000002,-2.9762784799999995,1.6365596400000002,-0.9429824700000001,both
1970-01-03 01:15:00.250,1621.0,A,0.0,1.0,11.10733054,-6.424571,-2.51582712,0.6929182100000001,-2.011331926,0.8021337880000001,both
1970-01-03 01:15:00.500,1621.0,A,0.0,1.0,9.6612325,-2.71355824,1.2033257648,1.682760616,-1.7019764279999996,2.35081518,both
1970-01-03 01:15:00.750,1621.0,A,0.0,1.0,11.1011055,-3.85224056,1.32064168,-0.686387416,1.42734436,-2.27179338,both
1970-01-03 01:15:01.000,1621.0,A,0.0,1.0,9.3720126,-3.94944522,-0.963426754,-1.7906441199999996,1.6559565000000003,-1.63327382,both
1970-01-03 01:15:01.250,1621.0,A,0.0,1.0,10.233925500000002,-6.62568392,-1.4063541000000002,0.24145336999999994,-0.9371085694,0.41863855999999994,both
1970-01-03 01:15:01.500,1621.0,A,0.0,1.0,9.8336152,-2.63024004,0.165199918,3.03351272,-1.6674563240000002,2.34570188,both
1970-01-03 01:15:01.750,1621.0,A,0.0,1.0,9.6459093,-2.71547368,1.346020228,-1.20261694,0.48671983799999996,-0.8739533519999998,both
1970-01-03 01:15:02.000,1621.0,A,0.0,1.0,10.0256299,-3.990146680000001,0.602381128,-1.8662730000000003,1.23303786,-2.01250791,both
1970-01-03 01:15:02.250,1621.0,A,0.0,1.0,10.5762962,-5.39937374,-1.0860098800000002,-0.47013182000000003,-0.03676678939999993,-0.03367273999999996,both
1970-01-03 01:15:02.500,1621.0,A,0.0,1.0,9.062681900000001,-3.5745131999999997,-0.5822698666,3.33690886,-1.710934,2.04444518,both
1970-01-03 01:15:02.750,1621.0,A,0.0,1.0,9.8829354,-2.1250635449999997,1.441309414,-1.2699392399999998,0.6993428839999998,0.48788073,both
1970-01-03 01:15:03.000,1621.0,A,0.0,1.0,9.992589999999998,-3.6683659,1.2909535559999998,-1.1891922000000001,1.0802814699999999,-2.54450098,both
1970-01-03 01:15:03.250,1621.0,A,0.0,1.0,9.621009699999998,-5.68093182,-1.489193474,-1.2179490700000002,0.40255089,-0.5405255400000001,both
1970-01-03 01:15:03.500,1621.0,A,0.0,1.0,10.461853399999999,-4.10794136,-1.016578066,3.7148645200000003,-2.2378134600000004,1.90574766,both
1970-01-03 01:15:03.750,1621.0,A,0.0,1.0,10.12666526,-0.60091476,1.6304513520000001,-0.3018278000000001,0.37017752400000004,0.8637059700000002,both
1970-01-03 01:15:04.000,1621.0,A,0.0,1.0,10.45706474,-3.5687671,1.17794722,-1.0168348471999997,0.86531512,-3.1335922600000004,both
1970-01-03 01:15:04.250,1621.0,A,0.0,1.0,9.5238052,-5.5870792,-0.502303532,-1.9431873420000003,0.679530588,-0.708624264,both
1970-01-03 01:15:04.500,1621.0,A,0.0,1.0,10.2262639,-3.71002498,-0.2901772339999999,1.900500692,-1.5813882400000001,2.04998446,both
1970-01-03 01:15:04.750,1621.0,A,0.0,1.0,10.401519660000002,-1.6505326919999999,1.43125378,0.5420758200000002,0.003724693999999995,1.443635952,both
1970-01-03 01:15:05.000,1621.0,A,0.0,1.0,9.4974686,-3.27906872,1.925895868,-0.7590376579999999,0.8024591680000001,-2.76735434,both
1970-01-03 01:15:05.250,1621.0,A,0.0,1.0,9.750775599999999,-6.13152062,-0.16950947599999996,-1.3871182000000002,0.706799504,-1.129190688,both
1970-01-03 01:15:05.500,1621.0,A,0.0,1.0,10.4934564,-3.65112764,-0.31172506999999994,1.8661967999999998,-1.61483354,2.2099872520000003,both
1970-01-03 01:15:05.750,1621.0,A,0.0,1.0,10.176703833333333,-1.6903563216666668,1.4197616083333333,-0.19118490833333326,0.12243694666666662,1.0297452033333334,both
1970-01-03 01:15:06.000,1621.0,A,0.0,1.0,10.5638462,-3.93316468,0.8049305916000001,-1.2876311616000002,1.43502916,-2.9919120599999998,both
1970-01-03 01:15:06.250,1621.0,A,0.0,1.0,9.701933799999999,-5.82410508,-1.6098612019999998,-0.7162233400000001,0.31330569799999985,-0.474053054,both
1970-01-03 01:15:06.500,1621.0,A,0.0,1.0,11.8576732,-4.119433540000001,-0.7905653919999999,2.51877406,-2.2835999399999998,3.2541593399999997,both
1970-01-03 01:15:06.750,1621.0,A,0.0,1.0,9.548705000000002,-1.81477494,1.51217778,-0.3003417165999999,0.291357282,0.68815042,both
1970-01-03 01:15:07.000,1621.0,A,0.0,1.0,11.7231191,-4.34544616,0.3955221160000001,-1.0389954160000001,1.56732994,-3.6704855800000002,both
1970-01-03 01:15:07.250,1621.0,A,0.0,1.0,10.2593039,-5.934238359999999,-1.56293487,-0.8444779920000001,0.5029174399999998,-0.769770464,both
1970-01-03 01:15:07.500,1621.0,A,0.0,1.0,11.413309199999999,-3.92310894,-0.7067683588,2.8040535799999997,-1.8979771200000002,3.28910006,both
1970-01-03 01:15:07.750,1621.0,A,0.0,1.0,10.4905834,-1.0342651960000002,0.909796648,-0.3182357640000001,0.232763732,0.5748062679999999,both
1970-01-03 01:15:08.000,1621.0,A,0.0,1.0,11.0316731,-3.85415608,1.309628358,-1.394152516,0.975465586,-3.2916775199999995,both
1970-01-03 01:15:08.250,1621.0,A,0.0,1.0,10.641897400000001,-5.09961966,-0.725921974,-0.26156288842000003,0.27281636000000004,-0.38606223999999995,both
1970-01-03 01:15:08.500,1621.0,A,0.0,1.0,8.87449756,-1.2334627400000004,1.2282254799999999,1.8717360720000003,-1.023611258,1.7438274720000002,both
1970-01-03 01:15:08.750,1621.0,A,0.0,1.0,11.3299908,-0.760847356,0.01388637199999998,-0.8289205899999998,0.15201137,-0.193675478,both
1970-01-03 01:15:09.000,1621.0,A,0.0,1.0,7.98098172,-3.2556055,2.5349807699999998,-0.501884414,0.21273145200000004,-0.516663626,both
1970-01-03 01:15:09.250,1621.0,A,0.0,1.0,10.83247576,-3.5984552200000004,0.339018946,0.09082417400000002,0.0005387559999999958,-0.32406407280000005,both
1970-01-03 01:15:09.500,1621.0,A,0.0,1.0,6.925138540000001,-0.09813239999999937,0.3624821280000002,1.3934295380000001,-0.759207842,1.44235741,both
1970-01-03 01:15:09.750,1621.0,A,0.0,1.0,11.2691782,-2.055631654,0.109175612,-1.7606053799999999,0.42707062560000003,0.15274826199999997,both
1970-01-03 01:15:10.000,1621.0,A,0.0,1.0,8.25152648,-3.1584009199999996,2.1456835240000003,-0.10497142800000012,0.10109972200000002,-0.32321188,both
1970-01-03 01:15:10.250,1621.0,A,0.0,1.0,10.2047159,-4.189823120000001,0.6100425979999999,-0.9039242660000001,0.0007598019999999872,-0.6242556159999999,both
1970-01-03 01:15:10.500,1621.0,A,0.0,1.0,7.945068399999999,-3.83835434,0.0009577019999999825,0.7357277999999998,-0.49948304600000004,0.8008551660000001,both
1970-01-03 01:15:10.750,1621.0,A,0.0,1.0,10.9852259,-2.160976512,-0.03782839,0.8083793800000001,-0.04291178600000001,0.643196002,both
1970-01-03 01:15:11.000,1621.0,A,0.0,1.0,8.829965399999999,-4.74432016,1.1535263679999999,-0.09752072200000014,-0.517595212,0.084997442,both
1970-01-03 01:15:11.250,1621.0,A,0.0,1.0,5.61024326,-6.97188548,-1.0251971340000001,-0.8289336900000001,-0.318386496,0.976410688,both
1970-01-03 01:15:11.500,1621.0,A,0.0,1.0,6.9146041,-6.384826980000001,-2.7949910200000003,0.064600298,-0.3995426123,-0.620420652,both
1970-01-03 01:15:11.750,1621.0,A,0.0,1.0,7.5442792999999995,-5.1321807800000006,-3.797203904,-0.915229958,-0.5923554692,-0.7614616599999999,both
1970-01-03 01:15:12.000,1621.0,A,0.0,1.0,8.47753886,-2.436788546,-4.221456399999999,0.3019374900000001,-0.08464378100000002,0.27035346439999997,both
1970-01-03 01:15:12.250,1621.0,A,0.0,1.0,4.31019154,-6.76933588,-5.12742218,-1.59082435,0.62290486,1.69525117,both
1970-01-03 01:15:12.500,1621.0,A,0.0,1.0,6.500886060000001,-4.192696099999999,-5.17386988,0.4512813660000001,-0.603843012,-0.605720222,both
1970-01-03 01:15:12.750,1621.0,A,0.0,1.0,7.42648444,-5.76808078,-4.34882798,0.898903936,0.08858154399999998,-0.375410106,both
1970-01-03 01:15:13.000,1621.0,A,0.0,1.0,9.505130600000001,-3.3197701599999996,-2.60010313,-0.1742456864000001,0.6333617699999999,-0.8615968299999999,both
1970-01-03 01:15:13.250,1621.0,A,0.0,1.0,6.60623104,-4.62796192,-3.7593755,-0.96701698,0.58116647,-0.39628929199999996,both
1970-01-03 01:15:13.500,1621.0,A,0.0,1.0,10.0294608,-3.2268749999999997,-2.95540254,1.3062557460000002,0.249658831,-0.6811409900000001,both
1970-01-03 01:15:13.750,1621.0,A,0.0,1.0,8.91136832,-1.67112286,-2.20218673,2.52065482,-0.63322832,-0.014924607999999973,both
1970-01-03 01:15:14.000,1621.0,A,0.0,1.0,11.004858160000001,-2.027380092,-2.6853366499999995,-1.118926864,-0.321746336,0.6721709260000001,both
1970-01-03 01:15:14.250,1621.0,A,0.0,1.0,5.4359452,-4.227172693999999,-6.320213580000001,-3.39901576,-1.02823501,0.594193584,both
1970-01-03 01:15:14.500,1621.0,A,0.0,1.0,7.415471139999999,0.9979332,-7.714596900000001,-0.7298890901000001,-0.3647883544,-0.39863288399999997,both
1970-01-03 01:15:14.750,1621.0,A,0.0,1.0,4.8943768,1.61515836,-7.3018363399999995,-0.03746800800000007,-0.014954180000000001,-1.08210654,both
1970-01-03 01:15:15.000,1621.0,A,0.0,1.0,6.5827678800000005,3.6301185174359993,-8.179071779999997,0.027087011999999966,-0.14299896,0.3170117839999999,both
1970-01-03 01:15:15.250,1621.0,A,0.0,1.0,4.31019152,0.5808632539999999,-7.234319859999999,0.007275012800000003,-0.2239622568,0.6235948820000001,both
1970-01-03 01:15:15.500,1621.0,A,0.0,1.0,5.57959738,1.8991107,-9.71758596,0.08482674400000002,-0.04947275199999997,-0.62446891,both
1970-01-03 01:15:15.750,1621.0,A,0.0,1.0,3.6034232520000002,2.61162516,-7.9932817,0.01111124160000001,0.350852191,-1.2764107506,both
1970-01-03 01:15:16.000,1621.0,A,0.0,1.0,6.23991814,4.103212938,-8.9246264,0.036678118,0.06770393959999998,0.5671358646,both
1970-01-03 01:15:16.250,1621.0,A,0.0,1.0,4.49167208,0.16522983279999998,-6.8124613400000005,-0.3195428916,-0.229084688,1.11084683,both
1970-01-03 01:15:16.500,1621.0,A,0.0,1.0,6.013426480000001,2.67770522,-9.2325207,0.08441049200000003,0.06087134399999997,-0.42824722400000004,both
1970-01-03 01:15:16.750,1621.0,A,0.0,1.0,3.78681908,2.2716485,-7.45602308,-0.028932424,0.15823443799999998,-0.7431393720000001,both
1970-01-03 01:15:17.000,1621.0,A,0.0,1.0,7.447074599999999,3.340420006,-8.840350400000002,0.17624240279999998,-0.16263152199999997,0.42204690399999994,both
1970-01-03 01:15:17.250,1621.0,A,0.0,1.0,3.9994241,-0.18288707319999997,-7.09354072,-0.031058055999999994,-0.34053067919999996,1.029673676,both
1970-01-03 01:15:17.500,1621.0,A,0.0,1.0,5.83386144,1.919221992,-9.093657100000001,-0.02957654000000002,0.089427342,-0.4910978160000001,both
1970-01-03 01:15:17.750,1621.0,A,0.0,1.0,4.26326506,1.0783783800000002,-8.045475540000002,0.122756274,0.13374234880000005,-0.616159834,both
1970-01-03 01:15:18.000,1621.0,A,0.0,1.0,6.8231456999999995,3.42852664,-8.726865,-0.011269322599999998,0.0001848219999999845,0.36345710200000003,both
1970-01-03 01:15:18.250,1621.0,A,0.0,1.0,4.20867736,-0.27769749,-6.84502262,-0.0660277536,-0.129770784,0.570757504,both
1970-01-03 01:15:18.500,1621.0,A,0.0,1.0,5.7385722999999995,2.29846362,-8.685205999999999,0.03389086179999994,0.32744629000000003,-1.00817746,both
1970-01-03 01:15:18.750,1621.0,A,0.0,1.0,4.692784860000001,2.3085191719999996,-8.224561699999999,0.16470320400000002,0.214958112,-0.79043738,both
1970-01-03 01:15:19.000,1621.0,A,0.0,1.0,6.25763526,3.86427152,-8.22168858,0.08331294159999998,-0.105892609,0.35173913200000007,both
1970-01-03 01:15:19.250,1621.0,A,0.0,1.0,4.33987974,0.25620951199999986,-6.700891779999999,0.0756369728,-0.23264869299999996,0.714568214,both
1970-01-03 01:15:19.500,1621.0,A,0.0,1.0,6.185809180000001,2.2520160860000003,-9.11233168,0.028551728000000016,0.11249804199999998,-0.397567868,both
1970-01-03 01:15:19.750,1621.0,A,0.0,1.0,4.6166493399999995,1.3810054520000001,-8.3179356,0.08628668440000001,0.17300932028,-0.9118775140000001,both
1970-01-03 01:15:20.000,1621.0,A,0.0,1.0,6.68763394,3.73498452,-8.586564999999998,-0.162985194,-0.12419944999999999,0.573314154,both
1970-01-03 01:15:20.250,1621.0,A,0.0,1.0,4.4423514399999995,-0.10244192200000002,-6.901525799999999,-0.08351966480000002,-0.208989168,0.9248513608,both
1970-01-03 01:15:20.500,1621.0,A,0.0,1.0,6.354839780000001,2.257283264,-8.712499959999999,-0.06690154599999999,0.08417159299999999,-0.4261169616,both
1970-01-03 01:15:20.750,1621.0,A,0.0,1.0,4.620001240000001,1.6616059139999997,-7.67628966,-0.0311086534,0.42995644200000005,-1.08722006,both
1970-01-03 01:15:21.000,1621.0,A,0.0,1.0,7.3503488599999995,3.8623560279999993,-8.634928,0.15446039259999997,-0.11439368600000002,0.6572569920000003,both
1970-01-03 01:15:21.250,1621.0,A,0.0,1.0,4.52471212,-0.8757690740000003,-7.0523606,-0.14594080380000002,-0.1840675718,0.8409085600399999,both
1970-01-03 01:15:21.500,1621.0,A,0.0,1.0,6.498013040000001,1.653465558,-8.961497099999999,0.07947139279999993,-0.07200548000000001,-0.7094772920000001,both
1970-01-03 01:15:21.750,1621.0,A,0.0,1.0,4.27332076,2.9070696199999997,-6.90056812,-0.25928269740000004,0.347495635,-1.131961176,both
1970-01-03 01:15:22.000,1621.0,A,0.0,1.0,7.021864379999999,3.7732918080000006,-8.514259839999998,0.392233028,-0.154883058,1.06397494,both
1970-01-03 01:15:22.250,1621.0,A,0.0,1.0,4.615691740000001,-0.558776712,-7.6264899999999995,-0.2716390176,-0.11994371228,0.735660402,both
1970-01-03 01:15:22.500,1621.0,A,0.0,1.0,6.729771680000001,1.2838008559999998,-9.7879752,0.1595830364,-0.04175863139999999,-0.4761843839999999,both
1970-01-03 01:15:22.750,1621.0,A,0.0,1.0,3.49185338,2.55607964,-6.37432252,0.08757111799999999,0.3093525232,-1.313482204,both
1970-01-03 01:15:23.000,1621.0,A,0.0,1.0,7.625203259999999,2.748094588,-8.91504928,0.35942581,-0.1911073714,0.820668532,both
1970-01-03 01:15:23.250,1621.0,A,0.0,1.0,4.480658759999999,-1.0582072400000002,-7.2601776000000005,-0.30444697480000005,-0.10269042140000002,0.8767014139999999,both
1970-01-03 01:15:23.500,1621.0,A,0.0,1.0,6.30360394,0.3773560600000001,-9.6840669,0.11846491399999999,-0.023437943799999982,-0.5692885104,both
1970-01-03 01:15:23.750,1621.0,A,0.0,1.0,3.78921318,2.47228262,-6.455725340000001,0.024935174400000003,0.152969041,-0.88055875,both
1970-01-03 01:15:24.000,1621.0,A,0.0,1.0,8.26972236,2.6815358120000004,-9.33882294,-0.09309244799999997,-0.20070514,0.9759840632,both
1970-01-03 01:15:24.250,1621.0,A,0.0,1.0,3.3534684399999994,-2.117402072,-7.233841,-0.30209487839999993,-0.1491506,1.392076352,both
1970-01-03 01:15:24.500,1621.0,A,0.0,1.0,7.804768359999999,-1.61797167388,-7.174943740000001,1.94433653,0.723084714,-0.49898104200000004,both
1970-01-03 01:15:24.750,1621.0,A,0.0,1.0,5.91813772,-1.743427746,-4.9880799200000006,1.9008764600000003,1.8759090600000001,-1.024156412,both
1970-01-03 01:15:25.000,1621.0,A,0.0,1.0,11.8782629,-4.4584525,-1.4580688260000003,-1.9091474939999997,0.24520099000000012,0.302523924,both
1970-01-03 01:15:25.250,1621.0,A,0.0,1.0,6.3897951200000005,-4.424933659999999,-0.8374917319999999,0.3170453179999999,-0.5793190340000001,1.4440612400000001,both
1970-01-03 01:15:25.500,1621.0,A,0.0,1.0,7.9589550000000004,-7.7413819,-3.083252915,0.109105724,-0.16301368199999997,0.0873404932,both
1970-01-03 01:15:25.750,1621.0,A,0.0,1.0,5.3966803400000005,-6.49304512,-0.560722056,2.54088738,-0.9199839360000001,-0.235221568,both
1970-01-03 01:15:26.000,1621.0,A,0.0,1.0,7.3876982799999995,-7.63460036,1.077390788,1.131542546,-0.20966562,0.635525582,both
1970-01-03 01:15:26.250,1621.0,A,0.0,1.0,2.69745722,-7.0188119,1.1961431560000002,-2.9769692999999995,0.7746387451999999,0.5113157420000001,both
1970-01-03 01:15:26.500,1621.0,A,0.0,1.0,6.5492490000000005,-7.8270942,-4.3679816,0.7446384540000001,0.789339378,-0.727586776,both
1970-01-03 01:15:26.750,1621.0,A,0.0,1.0,6.537756680000001,-6.9364514999999995,-1.98335668,1.08659252,-1.29453811,-0.574188736,both
1970-01-03 01:15:27.000,1621.0,A,0.0,1.0,8.96882942,-6.750661200000001,-0.03208231599999996,1.0028654320000001,0.122258804,0.2699268266,both
1970-01-03 01:15:27.250,1621.0,A,0.0,1.0,3.5335125399999994,-6.68889092,0.8226476936000001,-1.9336403,1.131273576,0.4013804468,both
1970-01-03 01:15:27.500,1621.0,A,0.0,1.0,7.02282206,-9.23009624,0.9433154460000001,1.5889793100000003,-0.428705286,-0.4923763778,both
1970-01-03 01:15:27.750,1621.0,A,0.0,1.0,5.49388494,-5.92178852,2.2495919200000003,-0.15230372660000002,0.1759419966,0.0826533388,both
1970-01-03 01:15:28.000,1621.0,A,0.0,1.0,9.9356075,-5.2471025,0.683305152,-2.08725728,1.1304317300000002,-2.3906776599999997,both
1970-01-03 01:15:28.250,1621.0,A,0.0,1.0,7.927351400000001,-4.05479002,0.283952318,-0.823214524,0.8562326499999999,-1.5440054800000003,both
1970-01-03 01:15:28.500,1621.0,A,0.0,1.0,11.4779524,-4.83099028,-0.25522190833999997,0.7968457299999999,-0.6289696739999999,1.088049934,both
1970-01-03 01:15:28.750,1621.0,A,0.0,1.0,9.094285320000001,-2.7327118800000005,0.177170934,1.28665436,-0.6999162740000001,1.9357873600000002,both
1970-01-03 01:15:29.000,1621.0,A,0.0,1.0,10.008391799999998,-3.7014059200000005,1.8382680280000003,-0.7908220074,0.618450713,-1.632209344,both
1970-01-03 01:15:29.250,1621.0,A,0.0,1.0,8.532126860000002,-3.077476988,0.252348866,-1.6536856,0.99555327,-1.22357392,both
1970-01-03 01:15:29.500,1621.0,A,0.0,1.0,10.45514956,-6.09417106,-1.86843504,-0.938044184,-0.9815719399999999,0.54497812,both
1970-01-03 01:15:29.750,1621.0,A,0.0,1.0,8.61975472,-3.2211290999999997,0.011492165200000026,3.2190415800000003,-1.5921777879999999,1.30898574,both
1970-01-03 01:15:30.000,1621.0,A,0.0,1.0,10.3311298,-3.0717308799999996,1.111388462,-1.203720428,0.599066366,-1.0612275960000002,both
1970-01-03 01:15:30.250,1621.0,A,0.0,1.0,8.7193534,-3.65591596,0.23223757400000006,-1.1406526799999999,0.8969071080000001,-1.4783852100000001,both
1970-01-03 01:15:30.500,1621.0,A,0.0,1.0,10.5997595,-5.1451096,-0.695276172,-0.030221187999999975,-0.24186028800000003,0.05197370800000001,both
1970-01-03 01:15:30.750,1621.0,A,0.0,1.0,8.772504719999999,-3.03486014,0.32800562199999994,2.08028002,-1.16288686,1.9244955599999998,both
1970-01-03 01:15:31.000,1621.0,A,0.0,1.0,10.4910626,-2.405663948,0.7881712139999999,-0.935909608,0.513839346,-0.476184344,both
1970-01-03 01:15:31.250,1621.0,A,0.0,1.0,8.738985679999999,-3.4457052399999997,0.8475473967999999,-0.8310929300000002,0.58735192,-1.610904054,both
1970-01-03 01:15:31.500,1621.0,A,0.0,1.0,10.465684399999999,-5.3486167,-0.6526593820000001,-0.16295908200000003,-0.13553652,-0.03601711199999995,both
1970-01-03 01:15:31.750,1621.0,A,0.0,1.0,9.1953204,-3.4729990600000002,-0.0751779132,1.4006415520000002,-1.31458078,2.2792285800000003,both
1970-01-03 01:15:32.000,1621.0,A,0.0,1.0,9.88916072,-2.24190056,0.9744400859999999,-0.76120466,0.567099914,-0.3837194139999999,both
1970-01-03 01:15:32.250,1621.0,A,0.0,1.0,9.92555214,-4.81470976,0.02777273800000001,-1.036683012,1.1184823560000001,-2.1682503340000006,both
1970-01-03 01:15:32.500,1621.0,A,0.0,1.0,9.4874134,-4.8511015,-0.88681231,-0.017864746000000008,-0.13980690039999993,-0.06286178200000006,both
1970-01-03 01:15:32.750,1621.0,A,0.0,1.0,10.0706405,-3.57403436,-0.6813898039999999,1.5374188480000002,-1.7080849,2.30202524,both
1970-01-03 01:15:33.000,1621.0,A,0.0,1.0,10.742933000000003,-1.4249989092,0.8844180999999999,-0.5784130079999998,0.322102406,-0.09695022600000014,both
1970-01-03 01:15:33.250,1621.0,A,0.0,1.0,10.4436576,-4.754854539999999,-0.886812342,-1.73869782,1.55141539,-2.65401094,both
1970-01-03 01:15:33.500,1621.0,A,0.0,1.0,9.5611547,-5.634484319999999,-2.30657394,-0.16572346400000004,-0.018579773999999948,-0.05433967400000004,both
1970-01-03 01:15:33.750,1621.0,A,0.0,1.0,11.573721100000002,-3.5347694400000003,-1.431253782,2.94697918,-2.2503088,2.93734898,both
1970-01-03 01:15:34.000,1621.0,A,0.0,1.0,9.336578800000002,-2.0029592000000003,0.743639068,-0.47742649400000003,0.32785617,0.5581873620000001,both
1970-01-03 01:15:34.250,1621.0,A,0.0,1.0,11.5081196,-4.7711352399999996,-0.5482722040000001,-1.920007606,1.7708634,-3.2339409679999997,both
1970-01-03 01:15:34.500,1621.0,A,0.0,1.0,9.3815898,-4.79555618,-2.39515936,-1.3012954099999998,0.5901125480000001,-0.55820975,both
1970-01-03 01:15:34.750,1621.0,A,0.0,1.0,10.5039914,-3.9226301000000006,-0.7177816599999999,3.154281174,-2.3412850599999997,1.9492096600000004,both
1970-01-03 01:15:35.000,1621.0,A,0.0,1.0,10.5585792,-0.20778677199999995,0.38259343,-0.23411321999999996,0.318043486,0.17128333599999998,both
1970-01-03 01:15:35.250,1621.0,A,0.0,1.0,10.027545100000001,-3.52279842,1.1468226079999997,-0.277789776,0.48976570960000004,-2.7364624340000003,both
1970-01-03 01:15:35.500,1621.0,A,0.0,1.0,9.709116400000001,-5.0560453,-0.344286188,-1.9570745999999999,0.15122785200000002,-0.244382842,both
1970-01-03 01:15:35.750,1621.0,A,0.0,1.0,10.591619099999999,-3.8488887799999993,-0.9279925880000001,2.4060325980800004,-1.75196878,2.3510273799999997,both
1970-01-03 01:15:36.000,1621.0,A,0.0,1.0,10.1889146,-0.997873356,0.5640739204,0.40098918600000016,-0.06415895840000005,0.9768361999999999,both
1970-01-03 01:15:36.250,1621.0,A,0.0,1.0,10.6107726,-3.5769073999999996,1.2986150269999999,-1.689496638,0.7946766129999999,-3.19921364,both
1970-01-03 01:15:36.500,1621.0,A,0.0,1.0,9.8762316,-5.23608902,-0.997903308,-1.5987360799999997,0.5488135780000001,-0.5820719334000001,both
1970-01-03 01:15:36.750,1621.0,A,0.0,1.0,10.2971321,-3.77706272,-0.8978256313999999,2.513829926,-1.62391066,2.02995672,both
1970-01-03 01:15:37.000,1621.0,A,0.0,1.0,9.527156999999999,-2.1188386,0.24133553000000002,0.25866514400000007,-0.14021037079999996,1.666062392,both
1970-01-03 01:15:37.250,1621.0,A,0.0,1.0,10.65769886,-3.150260728,1.75878056,-0.4047958748,0.36496274,-3.08160834,both
1970-01-03 01:15:37.500,1621.0,A,0.0,1.0,8.76292772,-4.538897520000001,-0.5109226400000001,-1.5802121519999996,1.003275328,-1.085089804,both
1970-01-03 01:15:37.750,1621.0,A,0.0,1.0,12.1708349,-5.73360418,-1.7372328,0.9525624500000001,-1.7642847920000002,2.27347589,both
1970-01-03 01:15:38.000,1621.0,A,0.0,1.0,9.3605203,-9.6548278,-2.89123792,0.4576418532,-2.3295162599999997,5.2029528,both
1970-01-03 01:15:38.250,1621.0,A,0.0,1.0,-5.603718906,-5.724985160000001,-0.5094860800000001,-0.11397999,-2.63652394,4.1739076,both
1970-01-03 01:15:38.500,1621.0,A,0.0,1.0,-4.6177866,2.77874034,4.19895086,1.328599652,-1.589153486,1.7461700199999999,both
1970-01-03 01:15:38.750,1621.0,A,0.0,1.0,-8.52129314,5.1533097,5.6191913,-0.8556177604,0.116759634,0.5272944340000001,both
1970-01-03 01:15:39.000,1621.0,A,0.0,1.0,-6.7175016,0.07712316000000001,4.99957198,-2.8811083,0.2158239048,0.412885046,both
1970-01-03 01:15:39.250,1621.0,A,0.0,1.0,-6.825240719999999,-3.4035671800000005,6.437050520000001,0.18408354799999999,-0.566293234,-0.440817866,both
1970-01-03 01:15:39.500,1621.0,A,0.0,1.0,-2.2954109879999995,1.2244246740000002,7.298963260000001,1.6081335920000002,-1.286633026,0.383909846,both
1970-01-03 01:15:39.750,1621.0,A,0.0,1.0,-3.3014544800000003,6.683683280000001,9.68885528,0.6854014800000001,0.829195146,0.13037693880000006,both
1970-01-03 01:15:40.000,1621.0,A,0.0,1.0,-6.272659,1.30199678,5.62493746,-0.7652749400000001,0.47275662,-0.6381048380000001,both
1970-01-03 01:15:40.250,1621.0,A,0.0,1.0,-6.69691132,0.643591356,8.507077599999999,0.83390017,-0.5718419374,0.22710292,both
1970-01-03 01:15:40.500,1621.0,A,0.0,1.0,-1.5493776999999997,5.53446656,5.7479993,2.3184499999999995,-1.280237946,0.710306878,both
1970-01-03 01:15:40.750,1621.0,A,0.0,1.0,-0.39202055399999997,8.5229091,8.22647704,-1.5427092400000002,1.19522669,-0.333013098,both
1970-01-03 01:15:41.000,1621.0,A,0.0,1.0,-5.3547218,2.4904785140000003,6.2507818,-0.3615416452,0.5956915848,-0.29615495999999997,both
1970-01-03 01:15:41.250,1621.0,A,0.0,1.0,-6.1524699,4.06825748,8.6258297,0.10376953599999998,-0.460204888,-0.0575357272,both
1970-01-03 01:15:41.500,1621.0,A,0.0,1.0,-3.0840609999999997,3.28918416,7.581958019999999,0.3163979685,-0.756564366,-0.5637493920000001,both
1970-01-03 01:15:41.750,1621.0,A,0.0,1.0,-2.8642733199999997,6.6252650200000005,7.602548059999999,1.1758599200000002,-0.157471394,0.498745362,both
1970-01-03 01:15:42.000,1621.0,A,0.0,1.0,-1.7097892739999998,4.2162191600000005,6.44136036,-1.9811577599999999,0.621023844,0.565217862,both
1970-01-03 01:15:42.250,1621.0,A,0.0,1.0,-4.02067264,3.7857416600000002,10.6201999,-0.30507204999999993,-0.459790756,-0.7491054079999999,both
1970-01-03 01:15:42.500,1621.0,A,0.0,1.0,-0.9393351080000001,-0.4323629080000001,7.336312700000001,-1.1841282279999998,0.299742772,-2.69981762,both
1970-01-03 01:15:42.750,1621.0,A,0.0,1.0,-3.8904281999999997,-2.61970552,9.75876586,0.2697452891,1.04670515,-0.49514635,both
1970-01-03 01:15:43.000,1621.0,A,0.0,1.0,-2.4816798140000005,-2.126500054,3.6482845800000008,-0.25500380400000006,1.82349566,-2.0148525200000003,both
1970-01-03 01:15:43.250,1621.0,A,0.0,1.0,11.312992400000002,-8.462994179999999,-3.11772942,-4.442770789999999,5.1567064799999995,-5.40580246,both
1970-01-03 01:15:43.500,1621.0,A,0.0,1.0,12.05579306,-2.2668001600000003,-4.24432104,1.0205449940000002,0.7840080039999999,-3.2070965120000006,both
1970-01-03 01:15:43.750,1621.0,A,0.0,1.0,8.84097882,-7.923341339999999,-3.6473269000000004,-1.1538743800000002,-0.80067614,-0.3430265979999999,both
1970-01-03 01:15:44.000,1621.0,A,0.0,1.0,16.105705200000003,-2.790651552,-3.3087868400000007,4.73959169,-1.6722707739999998,4.41508336,both
1970-01-03 01:15:44.250,1621.0,A,0.0,1.0,8.6494424,-0.6028300406000001,1.6649278920000001,-1.095499244,1.1468426539999999,-0.48662430799999995,both
1970-01-03 01:15:44.500,1621.0,A,0.0,1.0,14.7249688,-3.7804144871999994,-0.14987702,-0.6374299832,0.7226447600000002,-4.4881837099999995,both
1970-01-03 01:15:44.750,1621.0,A,0.0,1.0,9.829305399999999,-6.47293382,-4.4852974,-4.466416302,0.85495062,-0.5119775320000001,both
1970-01-03 01:15:45.000,1621.0,A,0.0,1.0,13.1232482,-4.02031356,-3.6664805199999995,5.51042324,-3.33835488,2.0039639879999998,both
1970-01-03 01:15:45.250,1621.0,A,0.0,1.0,9.32700168,-0.051684814000000176,1.2971784979999998,-0.487441594,0.811063048,0.8896974459999999,both
1970-01-03 01:15:45.500,1621.0,A,0.0,1.0,13.0198184,-3.8680423600000005,-0.547314504,-1.43510014,1.3074751900000001,-4.20034928,both
1970-01-03 01:15:45.750,1621.0,A,0.0,1.0,10.389548340000001,-6.28714386,-2.57233032,-1.27083624,0.26202444000000014,-0.34132219999999996,both
1970-01-03 01:15:46.000,1621.0,A,0.0,1.0,13.801764600000002,-3.75312062,-2.70927866,3.3726464800000002,-2.28160524,3.8313185599999997,both
1970-01-03 01:15:46.250,1621.0,A,0.0,1.0,9.21016468,-0.6942885619999999,0.8671798585999999,0.40311203199999995,0.34214695199999995,1.0744142440000002,both
1970-01-03 01:15:46.500,1621.0,A,0.0,1.0,13.00377782,-4.10554716,-0.6593631200000001,-1.892962614,1.5665682980000002,-5.07450528,both
1970-01-03 01:15:46.750,1621.0,A,0.0,1.0,9.79818066,-5.6392726600000005,-3.17902096,-2.74816256,0.562246568,-0.544787698,both
1970-01-03 01:15:47.000,1621.0,A,0.0,1.0,14.503265899999999,-4.318152199999999,-2.838565428,4.46665932,-3.01895776,2.83188734,both
1970-01-03 01:15:47.250,1621.0,A,0.0,1.0,9.50991874,-0.71296334,1.2655750080000001,0.4425129639999999,0.682842496,2.4505224859999997,both
1970-01-03 01:15:47.500,1621.0,A,0.0,1.0,11.749814220000001,-3.6607045400000002,0.6943184920000001,-1.357357806,0.6702723868,-5.2334429,both
1970-01-03 01:15:47.750,1621.0,A,0.0,1.0,10.068246659999998,-5.662257240000001,-2.1341913999999997,-3.311701276,0.799398348,-1.288555572,both
1970-01-03 01:15:48.000,1621.0,A,0.0,1.0,13.778780400000002,-4.30091392,-3.703829999999999,3.3351225799999993,-3.31507892,1.8974372800000001,both
1970-01-03 01:15:48.250,1621.0,A,0.0,1.0,11.27540306,1.19952504,0.397437466,1.0194599319999997,0.04389689600000004,2.5395789200000003,both
1970-01-03 01:15:48.500,1621.0,A,0.0,1.0,13.5038062,-3.19622928,-0.33087866800000004,-0.3334235046,0.5200660880000001,-4.917272199999999,both
1970-01-03 01:15:48.750,1621.0,A,0.0,1.0,9.0406554,-3.82494679,-2.01112944,-3.5558542799999997,0.6773094772,-0.6992511727999999,both
1970-01-03 01:15:49.000,1621.0,A,0.0,1.0,13.604961400000002,-5.0819025799999995,-3.66264972,2.2176619200000003,-2.810572359999999,1.93152568,both
1970-01-03 01:15:49.250,1621.0,A,0.0,1.0,10.7707054,-0.6526294439999999,-0.392649084,2.1482098480000005,-0.554134578,2.8695975999999996,both
1970-01-03 01:15:49.500,1621.0,A,0.0,1.0,12.2683984,-3.07364616,0.25426419599999994,-1.4653756199999999,1.011796112,-4.0433294040000005,both
1970-01-03 01:15:49.750,1621.0,A,0.0,1.0,9.958592199999998,-3.37292152,-2.07050561,-2.432421214,1.4163811919999998,-1.588960044,both
1970-01-03 01:15:50.000,1621.0,A,0.0,1.0,11.2739666,-5.77430576,-4.9579129,0.7045749399999999,-1.86634726,0.90397192,both
1970-01-03 01:15:50.250,1621.0,A,0.0,1.0,12.753104400000002,-0.523821384,-1.3144167640000002,3.0824582700000005,-0.9165574839999999,3.4961863600000003,both
1970-01-03 01:15:50.500,1621.0,A,0.0,1.0,11.054538259999998,-1.6371251399999998,0.823126548,-0.768262054,0.4776645919999999,-3.06072948,both
1970-01-03 01:15:50.750,1621.0,A,0.0,1.0,11.421928000000001,-3.1641470000000003,-1.158314766,-2.2389662199999996,1.0081662532,-2.3203706879999997,both
1970-01-03 01:15:51.000,1621.0,A,0.0,1.0,11.093922500000001,-6.04772368,-2.82324272,-0.20878158799999963,-1.39209394,0.834516664,both
1970-01-03 01:15:51.250,1621.0,A,0.0,1.0,11.8883186,-1.7319356,-1.6352398010000002,3.74569398,-1.250202322,3.1058735200000003,both
1970-01-03 01:15:51.500,1621.0,A,0.0,1.0,9.839361140000001,-1.38525514,0.40318357000000005,-1.7864344080000003,1.015184202,-1.51290004,both
1970-01-03 01:15:51.750,1621.0,A,0.0,1.0,12.83917606,-3.4318188,-1.5753847000000003,-2.0056639240000003,1.473031644,-2.91052704,both
1970-01-03 01:15:52.000,1621.0,A,0.0,1.0,9.68517434,-5.532970140000001,-3.9983167799999997,-0.7878532799999999,-0.33706617999999994,0.08329222000000006,both
1970-01-03 01:15:52.250,1621.0,A,0.0,1.0,13.473759000000001,-2.12841544,-2.47464686,4.36696192,-1.7574905553999998,3.33852724,both
1970-01-03 01:15:52.500,1621.0,A,0.0,1.0,10.148691920000001,-0.24034794,0.28682536599999997,-1.2495384259999998,0.669820968,-0.897816386,both
1970-01-03 01:15:52.750,1621.0,A,0.0,1.0,12.991088,-3.59366682,-0.82025356,-1.76619164,1.2674343159999997,-3.3131969900000002,both
1970-01-03 01:15:53.000,1621.0,A,0.0,1.0,10.1448611,-5.970630399999999,-3.2479740599999998,-1.29917976,-0.51155732,0.43845139999999994,both
1970-01-03 01:15:53.250,1621.0,A,0.0,1.0,12.766512,-2.54596422,-2.58430128,4.3522656799999995,-2.3139926799999997,3.13804448,both
1970-01-03 01:15:53.500,1621.0,A,0.0,1.0,9.062681940000001,-0.8427290600000001,0.51714757,-0.8986357600000001,0.370899774,-0.3149036839999999,both
1970-01-03 01:15:53.750,1621.0,A,0.0,1.0,13.329508800000003,-3.6223972200000008,-0.6387730140000001,-2.9831409199999994,1.423799898,-3.002778946,both
1970-01-03 01:15:54.000,1621.0,A,0.0,1.0,9.724439199999999,-4.489098199999999,-4.00549946,-1.5088139200000004,0.6461550400000002,-0.45274883,both
1970-01-03 01:15:54.250,1621.0,A,0.0,1.0,11.6627849,-3.1933563400000002,-2.2251709980000003,4.32073454,-2.6026803999999997,2.50932542,both
1970-01-03 01:15:54.500,1621.0,A,0.0,1.0,9.926510400000002,-1.132906336,0.967257458,-0.059848957599999975,0.07092557200000002,-0.020677620000000018,both
1970-01-03 01:15:54.750,1621.0,A,0.0,1.0,11.00533712,-2.65178788,-0.34524388400000006,-1.8889032519999998,0.797214772,-2.55174585,both
1970-01-03 01:15:55.000,1621.0,A,0.0,1.0,11.3007818,-3.3633446900000004,-1.65056263,-0.8826474604,0.024672861000000035,-0.258870676,both
1970-01-03 01:15:55.250,1621.0,A,0.0,1.0,7.86989088,0.312233872,0.99359372,2.2549814599999998,-0.25378562,0.42375071000000003,both
1970-01-03 01:15:55.500,1621.0,A,0.0,1.0,11.59383186,-0.5559036900000001,-0.02106900799999991,-0.5036311999999998,0.1384513556,-0.39778119999999995,both
1970-01-03 01:15:55.750,1621.0,A,0.0,1.0,8.12559134,-0.6713042140000001,1.002691676,-0.4565465079999999,-0.020486103999999995,0.9761968839999999,both
1970-01-03 01:15:56.000,1621.0,A,0.0,1.0,11.024491,-2.8548162199999996,-0.885854642,-0.81618271,-0.19646244879999997,0.025341853200000014,both
1970-01-03 01:15:56.250,1621.0,A,0.0,1.0,7.5016622,-2.5114875800000003,1.300051508,2.054705008,-0.363922022,0.020015518799999986,both
1970-01-03 01:15:56.500,1621.0,A,0.0,1.0,10.86264278,-2.47174386,-1.2636596519999999,-1.7529743,0.594386654,0.20728900600000003,both
1970-01-03 01:15:56.750,1621.0,A,0.0,1.0,8.18544636,-2.50382622,0.7426813680000001,-0.2942007272,0.160823239,-0.367101588,both
1970-01-03 01:15:57.000,1621.0,A,0.0,1.0,11.050348099999999,-3.7694012,-0.832703366,0.11571252807999999,-0.125519044,-0.16874934400000002,both
1970-01-03 01:15:57.250,1621.0,A,0.0,1.0,7.51746406,-1.7721581953999999,0.5573701420000001,1.4611412000000004,-0.32152716200000003,0.247769053,both
1970-01-03 01:15:57.500,1621.0,A,0.0,1.0,11.611549,-1.07879738,-0.843237856,-0.39518648,0.1015921426,-0.5643885332,both
1970-01-03 01:15:57.750,1621.0,A,0.0,1.0,8.189756,-1.556201212,1.159751324,-0.30847077200000006,0.226222482,0.6666310402000001,both
1970-01-03 01:15:58.000,1621.0,A,0.0,1.0,10.11660934,-3.6836888200000004,-1.2492944380000002,-0.332759686,0.19149644799999996,-0.6851895299999999,both
1970-01-03 01:15:58.250,1621.0,A,0.0,1.0,8.06238472,-2.37789122,-0.22026656000000006,1.527827546,-1.1956845,1.7440395,both
1970-01-03 01:15:58.500,1621.0,A,0.0,1.0,10.94979152,-1.5317803440000002,-0.528639748,-0.47316512,0.22495215200000002,0.030028999999999993,both
1970-01-03 01:15:58.750,1621.0,A,0.0,1.0,8.653752399999998,-2.9343036000000007,0.7062894780000001,-0.79699948,0.9190678139999999,-1.842066684,both
1970-01-03 01:15:59.000,1621.0,A,0.0,1.0,10.2703174,-5.41182364,-1.334049168,-1.396743356,0.28374410799999994,-0.6826328760000001,both
1970-01-03 01:15:59.250,1621.0,A,0.0,1.0,9.56737986,-2.8643930399999995,-1.0563217811999999,2.14994912,-1.4758618,1.9894764000000003,both
1970-01-03 01:15:59.500,1621.0,A,0.0,1.0,10.5839578,-0.6995557719999999,-0.472615436,0.08972805400000006,-0.045425261999999945,0.8202421799999999,both
1970-01-03 01:15:59.750,1621.0,A,0.0,1.0,10.29521708,-3.0315082999999996,0.08188171120000001,-0.5839491880000001,1.0366775400000001,-2.7185663,both
1970-01-03 01:16:00.000,1621.0,A,0.0,1.0,10.4379115,-4.86307238,-1.61417076,-1.8000577239999997,0.305697856,-0.35985774600000003,both
1970-01-03 01:16:00.250,1621.0,A,0.0,1.0,10.0677678,-2.6656742799999997,-1.6127342799999997,2.0513017099999997,-1.4779851400000001,2.19208962,both
1970-01-03 01:16:00.500,1621.0,A,0.0,1.0,9.635854140000001,-1.729541432,-0.04357447200000002,0.3982280800000001,-0.17304261799999995,1.049060956,both
1970-01-03 01:16:00.750,1621.0,A,0.0,1.0,11.045560080000001,-3.72247494,0.282515807,-0.4706033218,1.26613252,-3.1286931599999996,both
1970-01-03 01:16:01.000,1621.0,A,0.0,1.0,8.45168176,-3.14307802,-1.09702323,-2.3561281800000002,0.5400600338,-0.252692446,both
1970-01-03 01:16:01.250,1621.0,A,0.0,1.0,11.05657286,-4.25446654,-1.1678915879999998,0.9069898479999999,-1.4739289,1.1715661019999999,both
1970-01-03 01:16:01.500,1621.0,A,0.0,1.0,9.26235834,-0.16852190200000008,0.14939814800000004,0.2684809399999999,-0.2122483228,1.62728648,both
1970-01-03 01:16:01.750,1621.0,A,0.0,1.0,10.605026500000001,-2.9644705399999998,0.09193736299999998,-0.3570422840000002,0.803374768,-2.035518746,both
1970-01-03 01:16:02.000,1621.0,A,0.0,1.0,8.61736048,-3.4629433999999994,-0.2212242432,-1.4193233316000002,0.7028127359999999,-1.1438923779999999,both
1970-01-03 01:16:02.250,1621.0,A,0.0,1.0,12.0765029,-4.12326414,-1.0453084780000002,1.40213616,-0.97114405,1.7542660099999998,both
1970-01-03 01:16:02.500,1621.0,A,0.0,1.0,9.33418434,-1.3388076500000001,0.023463169999999978,1.4402686399999998,-0.5345915158,1.8955201,both
1970-01-03 01:16:02.750,1621.0,A,0.0,1.0,10.8535448,-3.0841807080000003,0.7699752619999999,-0.8696533940000002,0.713050984,-2.4848472999999998,both
1970-01-03 01:16:03.000,1621.0,A,0.0,1.0,9.305454000000001,-3.6271856,-0.7163451439999999,-2.63436828,0.9650888199999998,-1.414682632,both
1970-01-03 01:16:03.250,1621.0,A,0.0,1.0,11.7197673,-4.6303561,-1.3939042320000001,1.4728684280000002,-1.1603323639999998,1.53056044,both
1970-01-03 01:16:03.500,1621.0,A,0.0,1.0,10.0251513,-1.127160194,0.0641646076,1.5171842999999998,-0.6737211320000001,2.3702019200000004,both
1970-01-03 01:16:03.750,1621.0,A,0.0,1.0,11.34291968,-3.061675174,0.210210924,-0.841307474,0.729438754,-2.9083965,both
1970-01-03 01:16:04.000,1621.0,A,0.0,1.0,9.157492060000001,-2.804537864,-1.187045172,-2.758996548,0.8440611883999999,-1.193533726,both
1970-01-03 01:16:04.250,1621.0,A,0.0,1.0,12.18615746,-5.64070948,-2.8998570799999994,1.8305849704,-1.357620642,0.8756358780000001,both
1970-01-03 01:16:04.500,1621.0,A,0.0,1.0,11.3721288,-0.9701006120000001,-1.378581332,2.7343553999999997,-0.7401933860000002,3.04984068,both
1970-01-03 01:16:04.750,1621.0,A,0.0,1.0,9.8436705,-2.5134029412,1.4082694296,-0.6979259880000002,0.454606116,-2.80868776,both
1970-01-03 01:16:05.000,1621.0,A,0.0,1.0,9.95188834,-3.21969249,-0.910275476,-3.1126674000000003,1.0662806740000002,-1.3134825620000004,both
1970-01-03 01:16:05.250,1621.0,A,0.0,1.0,10.941651199999999,-5.1068022200000005,-2.53402314,0.5181791199999999,-0.770446644,0.205158456,both
1970-01-03 01:16:05.500,1621.0,A,0.0,1.0,11.07716328,-0.24369979000000033,-0.8968679639999999,2.9471944800000003,-0.7340135360000001,2.22255628,both
1970-01-03 01:16:05.750,1621.0,A,0.0,1.0,10.403435,-2.753301986,0.521935982,-0.7897535819999998,0.6322951659999999,-1.82054848,both
1970-01-03 01:16:06.000,1621.0,A,0.0,1.0,8.6063473,-3.174202704,-0.7503427819999999,-2.8591367159999996,1.005351568,-1.013717346,both
1970-01-03 01:16:06.250,1621.0,A,0.0,1.0,11.9395546,-5.2878039,-3.7244201599999998,1.07147708,-1.40513066,0.84197331,both
1970-01-03 01:16:06.500,1621.0,A,0.0,1.0,9.967690000000001,-1.0299555760000003,-0.07469909599999995,3.08291358,-0.9594314339999999,2.39086804,both
1970-01-03 01:16:06.750,1621.0,A,0.0,1.0,11.43773018,-3.198144752,-0.48985366399999997,-2.9511702,1.4666017199999999,-2.44564562,both
1970-01-03 01:16:07.000,1621.0,A,0.0,1.0,7.8493005,-3.93986838,-3.43089102,-3.441200893999999,1.5064585799999999,0.5047105860000001,both
1970-01-03 01:16:07.250,1621.0,A,0.0,1.0,10.268880600000001,-3.9006034200000004,-5.5119311,1.5250618280000001,-0.8066565880000001,-0.279110992,both
1970-01-03 01:16:07.500,1621.0,A,0.0,1.0,10.9991123,-2.5809195199999997,-2.086786156,5.16017446,-2.32381368,1.6528525799999998,both
1970-01-03 01:16:07.750,1621.0,A,0.0,1.0,10.481007,-1.1640309,0.599986968,-1.7043883999999998,0.5656077460000001,-1.359928248,both
1970-01-03 01:16:08.000,1621.0,A,0.0,1.0,10.66392396,-3.3322199599999998,-1.2832921044,-2.14903028,1.8758838199999999,-2.1646291000000004,both
1970-01-03 01:16:08.250,1621.0,A,0.0,1.0,11.1643122,-4.987571019999999,-3.60279474,1.2118786279999998,-0.5665539479999999,0.5162154459999999,both
1970-01-03 01:16:08.500,1621.0,A,0.0,1.0,11.4463492,-2.2538716036000004,-0.942357804,2.7944378999999997,-1.680185634,2.9869897800000005,both
1970-01-03 01:16:08.750,1621.0,A,0.0,1.0,10.027066440000002,-1.581579738,0.34715925700000005,-1.01643539,0.38045545999999997,-0.82559144,both
1970-01-03 01:16:09.000,1621.0,A,0.0,1.0,11.513386599999999,-2.69775656,-0.9126696759999999,-2.0356808600000003,1.29956644,-2.6231186799999997,both
1970-01-03 01:16:09.250,1621.0,A,0.0,1.0,10.486753099999998,-4.736179900000001,-2.11886849,-0.678961996,0.08815090799999994,-0.38712882199999993,both
1970-01-03 01:16:09.500,1621.0,A,0.0,1.0,10.853066,-2.8859408799999997,-1.0735600486799999,2.6457282799999997,-1.56854834,2.73878312,both
1970-01-03 01:16:09.750,1621.0,A,0.0,1.0,10.281809540000001,-1.1850998672,-0.21212626400000004,-0.5021233199999999,0.296508628,0.4194896939999998,both
1970-01-03 01:16:10.000,1621.0,A,0.0,1.0,10.385238900000001,-2.4252964199999996,0.043095605999999974,-1.1864491695,0.8696208500000001,-2.84064558,both
1970-01-03 01:16:10.250,1621.0,A,0.0,1.0,10.905259400000002,-4.9238852,-2.15909112,-0.835764824,0.270304222,-0.6295829604000001,both
1970-01-03 01:16:10.500,1621.0,A,0.0,1.0,10.326820399999999,-3.70954612,-1.4283807,1.633305,-2.00318284,2.58027178,both
1970-01-03 01:16:10.750,1621.0,A,0.0,1.0,10.5422984,-0.3820846799999999,-0.6914454736600001,-0.15293035999999996,0.25112969399999996,0.2569300459999999,both
1970-01-03 01:16:11.000,1621.0,A,0.0,1.0,10.777409200000001,-2.80310136,0.7872135199999999,-1.465549222,0.889010016,-2.73965878,both
1970-01-03 01:16:11.250,1621.0,A,0.0,1.0,10.959847400000001,-4.85349588,-1.6357186,0.004727757999999982,0.275632372,-0.5995425200000001,both
1970-01-03 01:16:11.500,1621.0,A,0.0,1.0,11.1748464,-2.83278952,-1.5136143399999997,2.1761612675400004,-1.72130996,2.88493742,both
1970-01-03 01:16:11.750,1621.0,A,0.0,1.0,10.697442599999999,0.2562094999999999,0.1522712204,-0.31506664000000006,0.341043066,0.44995594000000005,both
1970-01-03 01:16:12.000,1621.0,A,0.0,1.0,11.4214495,-2.8979118,0.15275006599999996,-1.279133342,0.8664357500000002,-3.27910865,both
1970-01-03 01:16:12.250,1621.0,A,0.0,1.0,9.89730038,-5.04072238,-1.76596315,-1.56888522,0.20767627600000002,-0.41226906,both
1970-01-03 01:16:12.500,1621.0,A,0.0,1.0,11.930935400000001,-3.0626328999999997,-1.6031574460000002,3.1691917199999997,-1.46158246,2.4963290000000002,both
1970-01-03 01:16:12.750,1621.0,A,0.0,1.0,9.740719799999999,-0.03875612600000009,0.153228902,-0.034697514000000096,0.32167015200000004,1.3537263320000001,both
1970-01-03 01:16:13.000,1621.0,A,0.0,1.0,12.165088399999998,-2.3941717600000003,0.7254431264,-0.6282530732,0.6337756139999999,-3.5364766600000004,both
1970-01-03 01:16:13.250,1621.0,A,0.0,1.0,8.8835956,-4.95213696,-0.79056539,-1.9660097,0.73198873,-1.123865678,both
1970-01-03 01:16:13.500,1621.0,A,0.0,1.0,12.818705600000001,-3.58504772,-1.8143260460000001,1.5125033540000001,-1.77415,2.0186643699999998,both
1970-01-03 01:16:13.750,1621.0,A,0.0,1.0,10.3325669,-0.9705794079999999,0.23032221500000002,1.8706442799999998,-0.7182582559999998,2.4294303000000004,both
1970-01-03 01:16:14.000,1621.0,A,0.0,1.0,11.437650333333336,-2.260575261666667,0.021946842500000008,-1.5373503766666667,1.0183726383333334,-2.7373861949999996,both
1970-01-03 01:16:14.250,1621.0,A,0.0,1.0,10.0783024,-4.785500539999999,-1.88471564,-1.91168494,1.25631855,-1.3222179400000003,both
1970-01-03 01:16:14.500,1621.0,A,0.0,1.0,11.0632768,-3.46533758,-1.930684206,2.42841595,-1.3169351599999999,1.820738268,both
1970-01-03 01:16:14.750,1621.0,A,0.0,1.0,11.248588,-0.755101286,-0.5262455340000001,0.7855658988,-0.5352455819999999,2.81441688,both
1970-01-03 01:16:15.000,1621.0,A,0.0,1.0,11.266305200000001,-2.1351191399999996,0.705810692,-0.5513402839999999,0.64783602548,-3.0598772199999997,both
1970-01-03 01:16:15.250,1621.0,A,0.0,1.0,9.360999199999998,-4.03084804,-1.6730681400000003,-2.0465428999999995,0.9970254520000001,-1.56360682,both
1970-01-03 01:16:15.500,1621.0,A,0.0,1.0,12.370510800000002,-4.4211029,-2.0848709,1.685504534,-1.65633516,1.9489961,both
1970-01-03 01:16:15.750,1621.0,A,0.0,1.0,9.973915,-0.546805754,0.111569798,1.5331586879999999,-0.3353846659999999,2.44796594,both
1970-01-03 01:16:16.000,1621.0,A,0.0,1.0,11.867728399999999,-2.76096344,0.2226607376000001,-1.239724622,0.9077789199999999,-3.3656081139999996,both
1970-01-03 01:16:16.250,1621.0,A,0.0,1.0,9.8508532,-3.66309872,-2.093968792,-2.8840570199999993,1.339407032,-1.261071756,both
1970-01-03 01:16:16.500,1621.0,A,0.0,1.0,12.5653988,-4.971290520000001,-2.3491907000000003,1.87938187,-1.777134808,1.772801342,both
1970-01-03 01:16:16.750,1621.0,A,0.0,1.0,9.69235686,-1.344553752,0.046926359,1.868085442,-0.702488102,2.43369136,both
1970-01-03 01:16:17.000,1621.0,A,0.0,1.0,11.441560800000001,-3.10716496,-0.12880804299999998,-1.4453161719999998,1.19219654,-2.9833913279999997,both
1970-01-03 01:16:17.250,1621.0,A,0.0,1.0,9.09284872,-3.1923986280000003,-1.6060304859999999,-2.036533558,1.052213368,-1.2301790747999999,both
1970-01-03 01:16:17.500,1621.0,A,0.0,1.0,11.84282874,-5.09291598,-3.01621538,0.80645074,-1.480570552,0.842612424,both
1970-01-03 01:16:17.750,1621.0,A,0.0,1.0,10.513088999999999,-1.8233941000000002,-0.740766006,2.0611177900000004,-1.5975341600000001,2.6501531199999997,both
1970-01-03 01:16:18.000,1621.0,A,0.0,1.0,10.372788799999999,-2.63598614,-0.01005564539999999,-1.0136670200000002,1.37818504,-1.863159236,both
1970-01-03 01:16:18.250,1621.0,A,0.0,1.0,10.092667460000001,-3.68512536,-2.51008106,-2.4956628800000002,2.0173437200000004,-1.64882803,both
1970-01-03 01:16:18.500,1621.0,A,0.0,1.0,11.2107596,-5.306957580000001,-5.5248598200000005,0.8773912300000001,-1.6115873960000002,0.34193817600000004,both
1970-01-03 01:16:18.750,1621.0,A,0.0,1.0,11.287853000000002,-1.3742418600000001,-1.60746702,3.8984811,-1.3755248100000002,2.63651774,both
1970-01-03 01:16:19.000,1621.0,A,0.0,1.0,10.159705319999999,-2.02354932,0.552581752,-1.1391526520000002,0.4935849576,-1.97032482,both
1970-01-03 01:16:19.250,1621.0,A,0.0,1.0,11.34291966,-3.1373320199999997,-0.986889934,-1.684567628,1.258870072,-2.43904118,both
1970-01-03 01:16:19.500,1621.0,A,0.0,1.0,10.9019078,-4.87264942,-2.8998570999999997,0.42380469600000004,-0.508831288,0.468065468,both
1970-01-03 01:16:19.750,1621.0,A,0.0,1.0,11.5674956,-1.8549974710000001,-1.46716681,2.62613306,-1.5061328999999997,3.33320068,both
1970-01-03 01:16:20.000,1621.0,A,0.0,1.0,10.4896262,-1.396747354,-0.13168109500000008,-0.611845602,0.2939525228,-1.46155448,both
1970-01-03 01:16:20.250,1621.0,A,0.0,1.0,11.12073766,-2.51819141,-0.310288534,-1.7619063218000002,0.9154302139999999,-2.291182418,both
1970-01-03 01:16:20.500,1621.0,A,0.0,1.0,10.7505944,-4.99427482,-2.84095972,-0.16976172999999992,-0.23036903559999994,0.007658200000000104,both
1970-01-03 01:16:20.750,1621.0,A,0.0,1.0,10.467120640000001,-1.7194857,-0.4616020866000001,2.55795612,-1.6591048999999998,3.03513968,both
1970-01-03 01:16:21.000,1621.0,A,0.0,1.0,10.9866624,-1.9445407419999998,0.13694833800000003,-0.7107013199999999,0.504021074,-1.1319617059999998,both
1970-01-03 01:16:21.250,1621.0,A,0.0,1.0,9.9777456,-2.109740632,-0.16519993400000002,-1.500707492,0.8819875640000001,-1.965211566,both
1970-01-03 01:16:21.500,1621.0,A,0.0,1.0,10.61173,-4.42014526,-2.56227466,0.11018533600000006,0.0035704879999999494,-0.11740384799999992,both
1970-01-03 01:16:21.750,1621.0,A,0.0,1.0,10.4757396,-2.5900174199999997,-0.6110002719999998,1.83591372,-1.331205832,3.1369789399999997,both
1970-01-03 01:16:22.000,1621.0,A,0.0,1.0,10.46807814,-1.595944892,0.2001552588,-0.40455039800000003,0.3248542452,-0.7054297852,both
1970-01-03 01:16:22.250,1621.0,A,0.0,1.0,10.83534866,-2.7394156,-0.15514427400000003,-2.019492274,0.9339740500000001,-2.2945912874000003,both
1970-01-03 01:16:22.500,1621.0,A,0.0,1.0,10.353635400000002,-4.3923725000000005,-1.969949128,-0.38921219367999993,0.21470858999999995,-0.3803111039999999,both
1970-01-03 01:16:22.750,1621.0,A,0.0,1.0,9.983970959999999,-2.90365798,-0.97300357,2.5779790399999998,-1.4498799999999998,2.2875371,both
1970-01-03 01:16:23.000,1621.0,A,0.0,1.0,10.304314699999999,-1.4566024,-0.517147554,-0.20917319400000003,0.144172097,0.7593087766,both
1970-01-03 01:16:23.250,1621.0,A,0.0,1.0,10.0064762,-2.3438935899999995,1.0462661307999999,-1.1340359169999998,0.577521936,-2.4912391400000002,both
1970-01-03 01:16:23.500,1621.0,A,0.0,1.0,10.740059800000001,-4.34113654,-1.45759002,-1.058189746,0.5890278199999999,-0.864580306,both
1970-01-03 01:16:23.750,1621.0,A,0.0,1.0,8.876892,-2.9539361400000006,-0.386903014,1.50654089,-0.8343784919999999,1.54249122,both
1970-01-03 01:16:24.000,1621.0,A,0.0,1.0,10.6069422,-0.913118602,-0.7187393679999999,-0.1220428399999999,-0.192436816,1.53332963,both
1970-01-03 01:16:24.250,1621.0,A,0.0,1.0,9.942790599999999,-2.0781371872000003,1.4336479800000002,-0.353844376,0.38706701858,-2.18167352,both
1970-01-03 01:16:24.500,1621.0,A,0.0,1.0,9.14456366,-4.01791936,-1.039562388,-1.2265060079999999,0.7011016499999999,-0.9662066060000001,both
1970-01-03 01:16:24.750,1621.0,A,0.0,1.0,11.614900800000001,-3.66214098,-1.440351736,1.2091153687999998,-1.099196554,1.362461492,both
1970-01-03 01:16:25.000,1621.0,A,0.0,1.0,9.62148846,-1.3091196000000003,-0.019153616000000005,1.7080818919999998,-0.24506194800000003,1.95879632,both
1970-01-03 01:16:25.250,1621.0,A,0.0,1.0,10.2023216,-2.4343943,0.8006210360000001,-0.45973324899999995,0.299078848,-2.0044135400000003,both
1970-01-03 01:16:25.500,1621.0,A,0.0,1.0,9.4318675,-3.05114078,-0.59567738,-2.32138694,0.9401507219999999,-1.440036306,both
1970-01-03 01:16:25.750,1621.0,A,0.0,1.0,11.032152,-4.360290239999999,-1.4369998800000001,0.5955238140000001,-0.5022237154,0.79531469,both
1970-01-03 01:16:26.000,1621.0,A,0.0,1.0,9.762746400000001,-1.89138944,-0.19201497400000003,1.5845153719999998,-0.8529087587999999,2.4507356000000002,both
1970-01-03 01:16:26.250,1621.0,A,0.0,1.0,10.45227666,-1.9148525919999997,1.179862576,-0.4914719906,0.16058381900000002,-1.6432885240000001,both
1970-01-03 01:16:26.500,1621.0,A,0.0,1.0,9.822601420000002,-2.88067352,-0.44675803199999997,-2.1032170999999997,0.835535356,-1.30730421448,both
1970-01-03 01:16:26.750,1621.0,A,0.0,1.0,10.4829222,-4.76060062,-1.72286752,0.4926168800000001,-0.15877846399999995,0.2509643279999998,both
1970-01-03 01:16:27.000,1621.0,A,0.0,1.0,10.1817322,-1.8133384200000002,-0.966299792,1.8874741399999997,-0.8953023059999999,2.4283648399999995,both
1970-01-03 01:16:27.250,1621.0,A,0.0,1.0,9.06842812,-1.4949096,0.772848302,-0.1033024754,0.22004767460000002,-0.31809993400000003,both
1970-01-03 01:16:27.500,1621.0,A,0.0,1.0,11.316583099999999,-2.95202074,-0.029209265999999977,-1.6049018599999996,0.514491306,-2.3776820759999997,both
1970-01-03 01:16:27.750,1621.0,A,0.0,1.0,10.463289999999999,-4.453664,-1.2009315600000001,-0.19044132000000005,0.34787993000000006,-0.61317818,both
1970-01-03 01:16:28.000,1621.0,A,0.0,1.0,10.267923,-2.5742157399999996,-1.0026916559999999,1.66439872,-1.14881926,2.58048458,both
1970-01-03 01:16:28.250,1621.0,A,0.0,1.0,10.2506846,-0.616237632,-0.174776734,-0.005509500000000012,0.147607036,0.8042626340000002,both
1970-01-03 01:16:28.500,1621.0,A,0.0,1.0,10.354114339999999,-2.5296835399999997,0.7565677319999999,-1.1664342099999998,0.35980690800000004,-2.9740172000000005,both
1970-01-03 01:16:28.750,1621.0,A,0.0,1.0,10.5159622,-4.98421916,-1.09750206,-0.3664198500000001,0.32720850399999996,-0.7167218919999999,both
1970-01-03 01:16:29.000,1621.0,A,0.0,1.0,11.2476304,-2.6335919599999995,-1.37618716,1.216353,-1.0766022960000001,3.0127688199999993,both
1970-01-03 01:16:29.250,1621.0,A,0.0,1.0,8.907537719999999,-1.2727277119999998,0.361524474,1.1577634719999998,-0.21693391799999998,1.1053063760000001,both
1970-01-03 01:16:29.500,1621.0,A,0.0,1.0,11.7446668,-3.0702944000000003,0.30262709400000004,-1.1082707379999999,0.650624086,-3.3986316000000003,both
1970-01-03 01:16:29.750,1621.0,A,0.0,1.0,9.1589288,-4.265958639999999,-1.7779341600000003,-2.183974728,0.7984827999999999,-1.0339576348,both
1970-01-03 01:16:30.000,1621.0,A,0.0,1.0,12.817269,-3.21250986,-1.6505626492,2.1597491599999996,-1.3627288800000001,2.53808708,both
1970-01-03 01:16:30.250,1621.0,A,0.0,1.0,9.779985,-1.1075277849999998,0.20159178334,1.1703319540000001,-0.41634875799999993,2.33355628,both
1970-01-03 01:16:30.500,1621.0,A,0.0,1.0,11.806436999999999,-3.04730996,0.016759423200000012,-0.60227216,0.501277214,-3.9623695,both
1970-01-03 01:16:30.750,1621.0,A,0.0,1.0,9.0124037,-3.3183335919999997,-0.7843404920000001,-2.7590093400000004,0.7315921540000001,-0.8618109220000001,both
1970-01-03 01:16:31.000,1621.0,A,0.0,1.0,12.2575046,-4.061493860000001,-1.92541702,1.6888952400000001,-1.186521872,1.58659286,both
1970-01-03 01:16:31.250,1621.0,A,0.0,1.0,9.6578802,-1.89378364,-0.03495535680000002,1.59025098,-0.9655844424000002,2.38532808,both
1970-01-03 01:16:31.500,1621.0,A,0.0,1.0,11.318498700000001,-2.4410980679999996,0.698628062,-0.782944208,0.31720538600000003,-2.6092705680000003,both
1970-01-03 01:16:31.750,1621.0,A,0.0,1.0,8.777293259999999,-2.60629798,-0.65361708,-2.42941334,1.0136688560000002,-0.7919295400000002,both
1970-01-03 01:16:32.000,1621.0,A,0.0,1.0,11.3003028,-4.778796739999999,-2.95348726,0.8447834360000002,-0.502628516,0.32766336,both
1970-01-03 01:16:32.250,1621.0,A,0.0,1.0,10.1965761,-1.9296965999999998,-0.10773907599999999,2.6389025600000005,-1.127513934,2.41835132,both
1970-01-03 01:16:32.500,1621.0,A,0.0,1.0,9.56881612,-1.4910789279999999,0.707726024,-0.854312502,0.29546627599999997,-1.291112386,both
1970-01-03 01:16:32.750,1621.0,A,0.0,1.0,10.77501472,-2.71643142,-0.5315128080000001,-2.1581991599999997,0.8291690580000001,-1.5648853560000002,both
1970-01-03 01:16:33.000,1621.0,A,0.0,1.0,10.8003936,-5.913648319999998,-1.1190499,0.24120168800000016,-0.19071376000000004,-0.3187391400000001,both
1970-01-03 01:16:33.250,1621.0,A,0.0,1.0,10.4312078,-2.138949888,-0.9394847439999999,2.5208661599999997,-1.141779412,2.5649317799999998,both
1970-01-03 01:16:33.500,1621.0,A,0.0,1.0,9.479751799999999,-1.3881281719999998,0.154665426,-0.07241454000000001,0.229430524,0.05708618000000012,both
1970-01-03 01:16:33.750,1621.0,A,0.0,1.0,10.91723066,-2.87780048,0.3873818472,-2.1746107199999996,0.6127186319999999,-2.4935829640000002,both
1970-01-03 01:16:34.000,1621.0,A,0.0,1.0,10.6974427,-4.33922118,-1.8722657200000001,-1.5927684860000002,0.5047097660000001,-0.6436449958600001,both
1970-01-03 01:16:34.250,1621.0,A,0.0,1.0,9.79434974,-3.24554994,-1.330697308,3.0215322500000004,-1.7581271,1.9146940999999997,both
1970-01-03 01:16:34.500,1621.0,A,0.0,1.0,10.720906000000001,-1.33354038,0.15993266820000002,0.23118366000000004,-0.1681218976,1.27681395,both
1970-01-03 01:16:34.750,1621.0,A,0.0,1.0,10.117088319999999,-2.4133254,0.9816227380000001,-1.4941185440000002,0.6683237500000001,-2.52255816,both
1970-01-03 01:16:35.000,1621.0,A,0.0,1.0,9.46395,-5.11302718,-1.20955072,-0.9989775732000001,0.8783832439999999,-1.269594128,both
1970-01-03 01:16:35.250,1621.0,A,0.0,1.0,11.428153,-3.24459222,-1.1243171559999998,1.535925696,-1.28452968,1.89338902,both
1970-01-03 01:16:35.500,1621.0,A,0.0,1.0,10.051008399999999,-1.3890859,0.1010353146,1.07828494,-0.42677343051999994,1.8897671200000001,both
1970-01-03 01:16:35.750,1621.0,A,0.0,1.0,10.90909048,-2.2385487,0.8125920599999998,-1.0695020400000002,0.494468574,-2.59819196,both
1970-01-03 01:16:36.000,1621.0,A,0.0,1.0,8.6853558,-3.1493029599999995,-0.88824886,-2.0640338799999998,1.111471354,-0.7780813,both
1970-01-03 01:16:36.250,1621.0,A,0.0,1.0,12.2589414,-5.41948488,-1.619916908,1.219536548,-0.709916708,0.53198082,both
1970-01-03 01:16:36.500,1621.0,A,0.0,1.0,10.049093000000001,-2.01445138,-0.754173512,2.22855386,-1.312002032,2.71811644,both
1970-01-03 01:16:36.750,1621.0,A,0.0,1.0,9.61909448,-1.1635520767999998,0.414196896,-0.7499272668,0.25436596200000006,-1.09382582,both
1970-01-03 01:16:37.000,1621.0,A,0.0,1.0,11.593353200000001,-3.86756356,-0.315555784,-2.3420717599999996,1.001756016,-2.1812476764,both
1970-01-03 01:16:37.250,1621.0,A,0.0,1.0,10.1055962,-4.4809579,-2.22708646,-0.7838042399999999,0.28036107999999993,-0.3737069864000001,both
1970-01-03 01:16:37.500,1621.0,A,0.0,1.0,10.35938166,-2.9615975600000004,-0.623928955,2.67084832,-1.7628160999999998,2.15437854,both
1970-01-03 01:16:37.750,1621.0,A,0.0,1.0,10.52458158,-0.453910692,0.685220554,0.3072387459999999,0.16701830499999998,0.6442596700000001,both
1970-01-03 01:16:38.000,1621.0,A,0.0,1.0,10.9636781,-3.1727661800000004,0.2628833566,-1.638999334,0.9163252660000001,-3.16320856,both
1970-01-03 01:16:38.250,1621.0,A,0.0,1.0,10.132411399999999,-4.73282808,-1.5959749,-0.633390148,0.10885590600000002,-0.26781974000000003,both
1970-01-03 01:16:38.500,1621.0,A,0.0,1.0,11.8739536,-2.8054956,-1.739626968,2.5144662,-1.6283770399999997,2.90666822,both
1970-01-03 01:16:38.750,1621.0,A,0.0,1.0,9.707201000000001,-1.231547428,-0.15753848199999998,0.71800648,-0.13871526400000003,1.2751092720000001,both
1970-01-03 01:16:39.000,1621.0,A,0.0,1.0,11.584733799999999,-2.8811524,0.34763810000000006,-1.9502664000000003,0.8293943699999999,-3.8076935,both
1970-01-03 01:16:39.250,1621.0,A,0.0,1.0,9.27528726,-4.83290562,-1.828691252,-1.6436826679999998,0.8323760659999999,-0.8982432300000001,both
1970-01-03 01:16:39.500,1621.0,A,0.0,1.0,12.5816797,-3.57307676,-2.24288818,1.75067692,-2.0736669599999997,2.19698912,both
1970-01-03 01:16:39.750,1621.0,A,0.0,1.0,9.888681459999999,-1.175523072,0.214041644,2.1301209599999997,-0.510705612,1.8186072,both
1970-01-03 01:16:40.000,1621.0,A,0.0,1.0,11.39702846,-2.72074089,0.13503296240000004,-2.0934518,1.1164005920000002,-2.9122320999999998,both
1970-01-03 01:16:40.250,1621.0,A,0.0,1.0,9.185264960000001,-3.88432288,-1.283292148,-1.6980255999999998,1.253606652,-1.12173567,both
1970-01-03 01:16:40.500,1621.0,A,0.0,1.0,11.5775514,-4.40865294,-2.37456922,1.2872828074,-1.33649724,1.164960872,both
1970-01-03 01:16:40.750,1621.0,A,0.0,1.0,10.059627299999999,-1.6481385260000003,-0.42425253867999996,2.138002984,-0.8136654739999999,2.44562186,both
1970-01-03 01:16:41.000,1621.0,A,0.0,1.0,10.287555600000001,-2.20742406,0.7513004839999999,-0.93912581,0.4699888120000001,-1.7310669539999999,both
1970-01-03 01:16:41.250,1621.0,A,0.0,1.0,9.84031856,-3.2953493000000003,-0.986889952,-2.3923609800000003,1.2672353299999997,-1.4257621740000002,both
1970-01-03 01:16:41.500,1621.0,A,0.0,1.0,10.5695924,-4.96362902,-2.8179754,0.02301954000000004,-0.466589026,0.23967226199999994,both
1970-01-03 01:16:41.750,1621.0,A,0.0,1.0,10.10032906,-2.14134402,-0.8935160968,3.14765318,-1.40487392,2.02718598,both
1970-01-03 01:16:42.000,1621.0,A,0.0,1.0,9.569295,-1.6878822599999999,0.98114388,-0.8560360859999999,0.47105567600000003,-0.562258779,both
1970-01-03 01:16:42.250,1621.0,A,0.0,1.0,10.3052725,-3.119614919999999,-0.046447519999999985,-1.8041205999999999,0.92379143,-1.6315712420000001,both
1970-01-03 01:16:42.500,1621.0,A,0.0,1.0,9.970084199999999,-4.55805116,-1.7314866599999998,-0.36494793,0.27696212000000003,-0.45807591400000003,both
1970-01-03 01:16:42.750,1621.0,A,0.0,1.0,10.190829399999998,-3.02480448,-1.0012551559999998,2.6165160999999997,-1.4347079600000001,1.88571882,both
1970-01-03 01:16:43.000,1621.0,A,0.0,1.0,9.5879698,-1.53225914,0.301190574,0.01940138600000001,0.019377968000000044,0.82578073,both
1970-01-03 01:16:43.250,1621.0,A,0.0,1.0,10.7668749,-2.78825738,0.43622355199999996,-1.134287698,0.832614142,-2.7134537800000005,both
1970-01-03 01:16:43.500,1621.0,A,0.0,1.0,9.22213572,-3.79477978,-0.782903958,-1.4008168529999998,0.5432883119999999,-0.520713512,both
1970-01-03 01:16:43.750,1621.0,A,0.0,1.0,11.401337999999999,-3.9920619599999996,-1.5830461500000002,1.413187594,-1.3038833999999997,1.5245942291999999,both
1970-01-03 01:16:44.000,1621.0,A,0.0,1.0,9.7459867,-1.415422128,0.09097965999999999,1.623471232,-0.6717562829999999,1.89828892,both
1970-01-03 01:16:44.250,1621.0,A,0.0,1.0,10.902386400000001,-2.5574563600000007,0.49464206400000005,-1.1449384,0.668134124,-2.746263956,both
1970-01-03 01:16:44.500,1621.0,A,0.0,1.0,8.7586184,-3.2862512799999997,-0.8384494440000001,-1.84332608,0.943398968,-0.9647157211999999,both
1970-01-03 01:16:44.750,1621.0,A,0.0,1.0,11.962538899999998,-4.61024484,-1.59214414,0.9996513188,-0.896099124,1.1598476000000002,both
1970-01-03 01:16:45.000,1621.0,A,0.0,1.0,9.4634717,-1.83967466,-0.27246015199999996,1.63305706,-0.945952656,2.40663284,both
1970-01-03 01:16:45.250,1621.0,A,0.0,1.0,10.8391794,-2.1245847,0.843716684,-0.4968338880000001,0.21859652360000004,-1.95306842,both
1970-01-03 01:16:45.500,1621.0,A,0.0,1.0,9.819728399999999,-2.7365426,-0.41323920340000003,-2.0184624999999996,1.016061992,-1.3075180592,both
1970-01-03 01:16:45.750,1621.0,A,0.0,1.0,10.74724234,-5.226512380000001,-1.97090684,0.15254640200000003,-0.25309406,0.026619099399999957,both
1970-01-03 01:16:46.000,1621.0,A,0.0,1.0,10.5068643,-2.0585047000000003,-1.069250486,2.70833814,-1.36183725,2.5619484,both
1970-01-03 01:16:46.250,1621.0,A,0.0,1.0,9.468259739999999,-1.51597864,0.30406361726000003,-0.701786342,0.438033536,0.23221517200000008,both
1970-01-03 01:16:46.500,1621.0,A,0.0,1.0,11.3022184,-3.1995812,-0.47070006,-1.731046088,0.9274181599999999,-2.863230328,both
1970-01-03 01:16:46.750,1621.0,A,0.0,1.0,10.343580000000001,-4.5561359,-2.0523096799999996,-0.789565734,0.45742402799999987,-0.6517412940000001,both
1970-01-03 01:16:47.000,1621.0,A,0.0,1.0,10.93399,-2.9405286000000004,-1.7247828799999998,2.16377158,-1.65264858,2.5924150399999997,both
1970-01-03 01:16:47.250,1621.0,A,0.0,1.0,9.6358537,-1.285656388,-0.138384864,0.6996710279999998,-0.23776223000000002,1.364378162,both
1970-01-03 01:16:47.500,1621.0,A,0.0,1.0,11.6943882,-3.0008625000000007,0.11348518199999999,-1.4025203200000003,0.8607357839999998,-3.494506,both
1970-01-03 01:16:47.750,1621.0,A,0.0,1.0,9.2901308,-3.79190678,-1.303882232,-1.795387546,0.885445944,-0.7435670639999999,both
1970-01-03 01:16:48.000,1621.0,A,0.0,1.0,12.0913474,-4.443608360000001,-1.9776106399999995,1.6697037600000002,-1.287905254,1.467921888,both
1970-01-03 01:16:48.250,1621.0,A,0.0,1.0,10.0160528,-1.58732578,-0.5013458159999999,1.6599003600000004,-0.9148443100000001,2.7225902800000004,both
1970-01-03 01:16:48.500,1621.0,A,0.0,1.0,10.789859100000001,-2.279250088,0.586579426,-0.8956689851,0.456151018,-2.53172001,both
1970-01-03 01:16:48.750,1621.0,A,0.0,1.0,9.898737,-3.04108504,-0.608606056,-2.01867396,1.0933975200000001,-1.256385342,both
1970-01-03 01:16:49.000,1621.0,A,0.0,1.0,10.2985692,-5.38357194,-1.96851266,0.236277764,-0.333630704,0.11610132999999996,both
1970-01-03 01:16:49.250,1621.0,A,0.0,1.0,11.303654400000001,-2.1944953600000003,-1.118092212,2.6335465,-1.7027043000000002,2.6774231000000004,both
1970-01-03 01:16:49.500,1621.0,A,0.0,1.0,9.545353,-1.19419788,0.36583401479999994,-0.16447761999999994,0.34324365200000007,0.08393029999999993,both
1970-01-03 01:16:49.750,1621.0,A,0.0,1.0,11.3314275,-3.0027779000000003,-0.656011246,-1.8989430999999999,0.6811487139999999,-2.909249766,both
1970-01-03 01:16:50.000,1621.0,A,0.0,1.0,9.8953854,-4.76682558,-1.8272547680000002,-1.4864739260000002,1.1277097079999998,-0.84199749294,both
1970-01-03 01:16:50.250,1621.0,A,0.0,1.0,11.731738000000002,-3.1914409800000003,-2.28694154,1.86207776,-1.5535598400000001,1.8322423099999998,both
1970-01-03 01:16:50.500,1621.0,A,0.0,1.0,9.73257954,-1.38525516,-0.259052621,1.9017047859999998,-0.772932438,2.1102763200000005,both
1970-01-03 01:16:50.750,1621.0,A,0.0,1.0,10.803266299999999,-2.669505,0.329920988,-0.7269417760000001,0.47385305860000004,-2.84661222,both
1970-01-03 01:16:51.000,1621.0,A,0.0,1.0,9.083751000000001,-2.5612870479999996,-0.541568402,-2.59285896,0.765522452,-0.536692766,both
1970-01-03 01:16:51.250,1621.0,A,0.0,1.0,11.209323000000001,-4.660044139999999,-2.37983643,0.42887012599999996,-0.663423254,0.45442930800000003,both
1970-01-03 01:16:51.500,1621.0,A,0.0,1.0,9.259964200000002,-1.9574693799999998,-0.8470685854,2.7370912,-1.33795933,2.03847752,both
1970-01-03 01:16:51.750,1621.0,A,0.0,1.0,9.716777599999999,-1.6682498119999998,0.08044518980000004,-0.9719464600000001,0.68476476,-0.6344840399999999,both
1970-01-03 01:16:52.000,1621.0,A,0.0,1.0,10.881317399999999,-2.8385355599999995,-0.040222586000000005,-0.8803343480000001,0.5652431360000001,-2.52170643064,both
1970-01-03 01:16:52.250,1621.0,A,0.0,1.0,10.181731500000001,-4.490056060000001,-1.1549629000000001,-0.5816343480000001,0.024515191999999963,-0.19261231999999998,both
1970-01-03 01:16:52.500,1621.0,A,0.0,1.0,10.90909,-2.7839477599999998,-1.33309152,1.67225022,-1.5216064,2.78458872,both
1970-01-03 01:16:52.750,1621.0,A,0.0,1.0,9.32652316,-1.062995608,0.2815581168,0.7997973140000001,0.077783746,0.7531294027999997,both
1970-01-03 01:16:53.000,1621.0,A,0.0,1.0,11.778185599999999,-2.97931474,-0.2767697158,-1.1509157300000001,0.6771031080000001,-3.7288642599999995,both
1970-01-03 01:16:53.250,1621.0,A,0.0,1.0,9.511355300000002,-4.56714928,-1.31824748,-2.5619662659999998,0.5411777672,-0.405239116,both
1970-01-03 01:16:53.500,1621.0,A,0.0,1.0,11.9563142,-3.17180842,-1.9972430600000002,2.3269588000000003,-1.68863454,1.92811606,both
1970-01-03 01:16:53.750,1621.0,A,0.0,1.0,9.63729014,-0.716315218,0.16615760200000002,0.610606372,-0.33042559000000005,1.9321640800000002,both
1970-01-03 01:16:54.000,1621.0,A,0.0,1.0,11.71450006,-3.0951939800000003,-0.2987963808,-1.0239353340000001,0.9811279699999998,-3.27058738,both
1970-01-03 01:16:54.250,1621.0,A,0.0,1.0,8.9669135,-4.35358638,-2.000594992,-1.7758034740000004,0.9964757800000001,-0.923809814,both
1970-01-03 01:16:54.500,1621.0,A,0.0,1.0,12.1703556,-3.35281018,-2.232832548,1.711446054,-1.6223702799999997,2.05317815,both
1970-01-03 01:16:54.750,1621.0,A,0.0,1.0,9.52045314,-1.2454338120000001,0.158496148,1.45301236,-0.6097288712,2.38788426,both
1970-01-03 01:16:55.000,1621.0,A,0.0,1.0,11.370573,-3.37052724,0.08236052919999999,-0.854137548,0.7101340279999999,-3.57013988,both
1970-01-03 01:16:55.250,1621.0,A,0.0,1.0,8.3238311,-3.1497818587999995,-0.51331682,-1.7140194440000003,0.7584978299999999,-0.511552488,both
1970-01-03 01:16:55.500,1621.0,A,0.0,1.0,11.421449200000001,-3.5251926999999994,-1.9891027599999997,0.7399233426,-0.9766043480000001,1.0955054199999998,both
1970-01-03 01:16:55.750,1621.0,A,0.0,1.0,8.961646600000002,-1.7290625372000001,-0.33614593200000004,2.6062678832,-0.7914635259999999,1.262112808,both
1970-01-03 01:16:56.000,1621.0,A,0.0,1.0,10.429770999999999,-2.73941562,0.404141262,-1.07166216,0.295529122,-1.05696792,both
1970-01-03 01:16:56.250,1621.0,A,0.0,1.0,8.7045096,-2.571342726,-0.5612008960000001,-2.51275352,1.122603362,-0.5897429592,both
1970-01-03 01:16:56.500,1621.0,A,0.0,1.0,10.470951199999998,-4.97799422,-3.49792858,-1.232099512,-0.39581286000000004,0.04068029799999997,both
1970-01-03 01:16:56.750,1621.0,A,0.0,1.0,8.81560026,-2.5617658879999996,-1.4154520800000001,4.345624920000001,-1.18794348,0.4297148946,both
1970-01-03 01:16:57.000,1621.0,A,0.0,1.0,9.90687724,-2.003916898,0.328484482,-1.1068166572,0.546720074,0.3023094799999999,both
1970-01-03 01:16:57.250,1621.0,A,0.0,1.0,9.4203756,-2.4592940519999997,-0.12928688799999996,-1.291959644,0.6979876340000001,-1.2357192084000002,both
1970-01-03 01:16:57.500,1621.0,A,0.0,1.0,9.786209860000001,-4.84870734,-1.941218724,-1.254250996,0.5068823919999998,-0.601887132,both
1970-01-03 01:16:57.750,1621.0,A,0.0,1.0,9.49746902,-3.058323308,-1.59645374,3.2618306599999998,-1.2260889799999999,0.9314544359999999,both
1970-01-03 01:16:58.000,1621.0,A,0.0,1.0,10.5930556,-0.8264484700000001,-0.07565677499999998,-0.07137777599999998,0.007266966000000002,1.662438994,both
1970-01-03 01:16:58.250,1621.0,A,0.0,1.0,9.829305,-2.6292824,0.6119579419999999,-0.3033897120000001,0.5699348432000001,-2.8689827,both
1970-01-03 01:16:58.500,1621.0,A,0.0,1.0,9.34184574,-4.3885418199999995,-0.803015248,-1.43022944,0.28466235328,-0.619144313,both
1970-01-03 01:16:58.750,1621.0,A,0.0,1.0,11.476994860000001,-3.5065178999999995,-1.4235923639999999,1.34946712,-1.4698201999999998,2.0968537400000002,both
1970-01-03 01:16:59.000,1621.0,A,0.0,1.0,9.299229120000001,-1.35413056,0.035434182800000005,0.73693906,-0.21174099999999996,1.23377648,both
1970-01-03 01:16:59.250,1621.0,A,0.0,1.0,11.2921624,-3.06502708,-0.17046717800000002,-1.05185729,0.9941457939999999,-2.95399102,both
1970-01-03 01:16:59.500,1621.0,A,0.0,1.0,8.57953206,-3.7210383,-0.8810662309999999,-1.254044476,1.000963462,-0.656215652,both
1970-01-03 01:16:59.750,1621.0,A,0.0,1.0,11.74179354,-4.2276515,-2.52492506,1.239746186,-1.5196771666,1.389305084,both
1970-01-03 01:17:00.000,1621.0,A,0.0,1.0,10.058191099999998,-0.9135974299999999,-0.08571241799999998,2.045299166,-0.9746879299999998,2.42048098,both
1970-01-03 01:17:00.250,1621.0,A,0.0,1.0,11.9524833,-2.1250634859999997,0.29735985000000004,-0.947668174,0.6496283399999999,-2.93162054,both
1970-01-03 01:17:00.500,1621.0,A,0.0,1.0,8.246738059999998,-2.93190944,-0.622971282,-1.7317028999999997,1.0953352200000002,-0.54308459,both
1970-01-03 01:17:00.750,1621.0,A,0.0,1.0,12.457181199999999,-4.5681069800000005,-2.6968288,0.7816805398,-1.13958716,0.6093184600000001,both
1970-01-03 01:17:01.000,1621.0,A,0.0,1.0,9.372970720000001,-1.30337344,-0.46160210799999996,4.01262646,-1.1992403400000002,2.0504082,both
1970-01-03 01:17:01.250,1621.0,A,0.0,1.0,10.493457000000001,-2.19736838,-0.040701434000000036,-1.875302628,0.578046295,-1.210792296,both
1970-01-03 01:17:01.500,1621.0,A,0.0,1.0,10.4790917,-2.9860184399999996,-0.45777136799999996,-1.95114901,0.9992510689999999,-1.8032924780000001,both
1970-01-03 01:17:01.750,1621.0,A,0.0,1.0,10.810449120000001,-5.0502991360000005,-2.26683016,0.46657637999999996,-0.151449714,0.29975257999999994,both
1970-01-03 01:17:02.000,1621.0,A,0.0,1.0,10.3316088,-2.2567446,-1.74872496,2.5155108999999998,-1.56549022,2.5468214600000003,both
1970-01-03 01:17:02.250,1621.0,A,0.0,1.0,8.906101,-0.7239766599999999,1.809058818,0.14721502599999997,0.5062360496,0.4007397000000002,both
1970-01-03 01:17:02.500,1621.0,A,0.0,1.0,11.8757494,-2.59624244,-1.0113107920000002,-1.9581805680000002,0.9300102160000001,-3.3127720080000005,both
1970-01-03 01:17:02.750,1621.0,A,0.0,1.0,10.4494036,-6.12433796,-2.1902157200000003,-1.3754809,0.5806035,-0.6560026299999999,both
1970-01-03 01:17:03.000,1621.0,A,0.0,1.0,11.869165200000001,-3.349458146,-2.2424093259999998,3.3917940799999995,-2.1803552799999997,2.61670274,both
1970-01-03 01:17:03.250,1621.0,A,0.0,1.0,10.606942140000001,-0.8542212580000001,-0.473573098,0.28314040800000007,0.24588935999999997,1.8556778480000002,both
1970-01-03 01:17:03.500,1621.0,A,0.0,1.0,10.8626426,-3.21298872,0.9481038759999999,-1.125991446,0.94299842,-4.16754034,both
1970-01-03 01:17:03.750,1621.0,A,0.0,1.0,9.7967441,-4.660044340000001,-3.16896544,-2.54385844,1.014797278,-0.997100294,both
1970-01-03 01:17:04.000,1621.0,A,0.0,1.0,12.2378724,-3.2058061900000006,-2.4080880999999996,2.2809348799999998,-2.3239502199999995,1.738924832,both
1970-01-03 01:17:04.250,1621.0,A,0.0,1.0,11.183944400000001,-1.0088866590000003,-0.502782364,1.7834528200000002,-0.25477421199999994,2.51784626,both
1970-01-03 01:17:04.500,1621.0,A,0.0,1.0,10.97612768,-2.75713276,0.55258176,-1.1624288100000002,0.76297811,-3.31277216,both
1970-01-03 01:17:04.750,1621.0,A,0.0,1.0,9.08997566,-3.4097920599999996,-1.971864528,-2.2453733799999998,1.383382712,-1.0111617677999998,both
1970-01-03 01:17:05.000,1621.0,A,0.0,1.0,11.3041336,-5.67805872,-3.59178132,0.551797966,-1.4821785520000001,0.80788376,both
1970-01-03 01:17:05.250,1621.0,A,0.0,1.0,11.1341452,-1.42260475,-1.42071928,4.01945454,-1.292361748,2.2939276399999997,both
1970-01-03 01:17:05.500,1621.0,A,0.0,1.0,8.57474378,-1.585410412,0.62392898,-1.69952422,0.775529514,-0.7872431412,both
1970-01-03 01:17:05.750,1621.0,A,0.0,1.0,12.915790699999999,-3.7186442200000003,-1.6692374114,-2.71898484,1.569155768,-2.3525427312000002,both
1970-01-03 01:17:06.000,1621.0,A,0.0,1.0,9.3997855,-5.719239119999999,-2.37840002,0.2560850379999999,0.24737671999999983,-0.5305144500000002,both
1970-01-03 01:17:06.250,1621.0,A,0.0,1.0,13.332500999999999,-3.04922544,-3.0267497000000003,3.81087008,-2.2798525599999997,3.0189466200000004,both
1970-01-03 01:17:06.500,1621.0,A,0.0,1.0,8.623585080000002,-0.07275381999999989,-0.318428828,-0.3270444960000001,0.14980520999999997,0.95062918,both
1970-01-03 01:17:06.750,1621.0,A,0.0,1.0,12.9330289,-2.8414086398,0.052672458,-1.5657332880000001,0.7423042,-3.69456287,both
1970-01-03 01:17:07.000,1621.0,A,0.0,1.0,8.048977,-4.8606784,-2.80265248,-2.1181783860000003,1.095970398,-0.608065738,both
1970-01-03 01:17:07.250,1621.0,A,0.0,1.0,13.157724199999999,-3.51178512,-2.87495738,2.62523082,-2.3427029,1.9811659599999998,both
1970-01-03 01:17:07.500,1621.0,A,0.0,1.0,10.114215300000001,-0.47976808320000003,-0.5865794348,1.8000764460000003,-0.3257301679999999,2.1334988200000002,both
1970-01-03 01:17:07.750,1621.0,A,0.0,1.0,12.04478014,-3.7215172,-0.24037784999999995,-1.2127044599999999,0.901454448,-3.741860624,both
1970-01-03 01:17:08.000,1621.0,A,0.0,1.0,9.0066575,-3.2225655772,-1.427901892,-2.17911846,1.048471632,-0.9508678164000001,both
1970-01-03 01:17:08.250,1621.0,A,0.0,1.0,13.007368600000001,-4.957404091999999,-2.7408821199999998,2.09663988,-1.6372730472,1.6905618279999999,both
1970-01-03 01:17:08.500,1621.0,A,0.0,1.0,9.809194199999999,-0.5889436680000001,-1.0682928,1.926840988,-0.54410619,2.4070587199999998,both
1970-01-03 01:17:08.750,1621.0,A,0.0,1.0,11.6048452,-2.815072376,0.28538883400000004,-1.2254885,0.824969806,-2.497844792,both
1970-01-03 01:17:09.000,1621.0,A,0.0,1.0,10.1975336,-3.4552820999999994,-1.179862608,-2.7507373100000003,1.1899349740000003,-1.8403636760000002,both
1970-01-03 01:17:09.250,1621.0,A,0.0,1.0,11.20214028,-5.553560299999999,-3.7933731799999997,1.1434412600000001,-0.97041754,0.9046097879999999,both
1970-01-03 01:17:09.500,1621.0,A,0.0,1.0,11.635491000000002,-2.02259166,-1.5634136600000001,2.76391354,-1.5405332120000002,3.2697097200000003,both
1970-01-03 01:17:09.750,1621.0,A,0.0,1.0,9.918369539999999,-1.376157224,0.758961939,-0.82710488,0.20865175540000003,-1.31476236,both
1970-01-03 01:17:10.000,1621.0,A,0.0,1.0,12.281925699999999,-3.27763226,-0.684741678,-2.011041446,1.30076378,-2.7688482519999997,both
1970-01-03 01:17:10.250,1621.0,A,0.0,1.0,9.76897134,-5.20304914,-2.73082648,0.07282200000000003,-0.05232344600000012,-0.2100832,both
1970-01-03 01:17:10.500,1621.0,A,0.0,1.0,12.196213199999999,-2.96542834,-1.9292477399999997,2.68122854,-1.95659006,3.24350412,both
1970-01-03 01:17:10.750,1621.0,A,0.0,1.0,9.9552402,-0.8527847000000002,-0.7067683379999999,-0.42763318000000006,0.512895264,0.2726946600000001,both
1970-01-03 01:17:11.000,1621.0,A,0.0,1.0,11.22656166,-3.11626292,0.026815053999999994,-1.162878563,0.881050658,-3.2921061199999997,both
1970-01-03 01:17:11.250,1621.0,A,0.0,1.0,10.5724656,-5.44199048,-1.847366058,-1.7464389719999995,0.50524028,-0.545641722,both
1970-01-03 01:17:11.500,1621.0,A,0.0,1.0,11.071895800000002,-3.45767618,-1.9972430319999996,2.1698969999999997,-2.0390335800000003,2.53808574,both
1970-01-03 01:17:11.750,1621.0,A,0.0,1.0,9.390687660000001,-0.5099350699999999,0.07613560800000001,0.591391854,-0.10771554000000003,0.82173187,both
1970-01-03 01:17:12.000,1621.0,A,0.0,1.0,11.998451999999999,-3.359992826,-0.22457612799999999,-1.379344872,0.9611665220000001,-3.15085205,both
1970-01-03 01:17:12.250,1621.0,A,0.0,1.0,8.46844088,-4.17210592,-2.29795486,-1.8295253080000002,0.92665142,-0.626388536,both
1970-01-03 01:17:12.500,1621.0,A,0.0,1.0,12.0856009,-3.4643799800000004,-2.312798848,2.427910988,-1.53091438,1.9430293199999997,both
1970-01-03 01:17:12.750,1621.0,A,0.0,1.0,9.892512159999999,-0.9054571619999999,-0.46591163199999996,1.1977434620000003,-0.2581362208,2.28540524,both
1970-01-03 01:17:13.000,1621.0,A,0.0,1.0,11.7748339,-3.3212067000000003,0.4505887499999999,-0.759787082,0.734904364,-3.453813308,both
1970-01-03 01:17:13.250,1621.0,A,0.0,1.0,8.402360939999998,-3.47012602,-1.4341268167999999,-3.15535372,1.0655624160000001,-0.620423048,both
1970-01-03 01:17:13.500,1621.0,A,0.0,1.0,11.9855233,-4.8712129399999995,-3.8886622799999997,0.06174972000000008,-2.12917362,0.9495636199999999,both
1970-01-03 01:17:13.750,1621.0,A,0.0,1.0,9.214474200000002,-1.7961001799999998,-0.697670376,3.9220548600000003,-1.6110289660000003,1.0145448,both
1970-01-03 01:17:14.000,1621.0,A,0.0,1.0,9.6971456,-5.86815832,-0.17334018800000003,-0.40995006000000006,-0.016540067999999974,-0.4970654178978,both
1970-01-03 01:17:14.250,1621.0,A,0.0,1.0,3.6819529600000003,-6.38434848,-1.417367368,-1.9863285400000001,0.6671468949999999,0.5956828319999999,both
1970-01-03 01:17:14.500,1621.0,A,0.0,1.0,7.825837279999999,-7.9530292000000005,-3.03297472,0.32317016,-0.189548336,-0.271868538,both
1970-01-03 01:17:14.750,1621.0,A,0.0,1.0,5.98230198,-5.4271464599999995,-1.9665973,1.1545061699999999,-0.7886594739999999,-0.8192013979999999,both
1970-01-03 01:17:15.000,1621.0,A,0.0,1.0,8.307550540000001,-7.34011366,-2.5833435799999998,-0.687764904,0.73126462,0.79382202,both
1970-01-03 01:17:15.250,1621.0,A,0.0,1.0,6.1743168,-5.5344068,0.024899684000000023,0.5920396600000001,-0.11582646320000003,0.549237282,both
1970-01-03 01:17:15.500,1621.0,A,0.0,1.0,4.81536804,-9.729527000000001,-1.480574292,0.012536547999999991,-0.282008988,0.35003284200000007,both
1970-01-03 01:17:15.750,1621.0,A,0.0,1.0,4.97386422,-6.0989594,-0.9083601280000002,0.4288450920000001,-0.10049305400000001,-0.9544899680000001,both
1970-01-03 01:17:16.000,1621.0,A,0.0,1.0,7.236863700000001,-8.7095971,-0.9710882200000001,-0.2814731979999999,0.303029129,0.06944219199999997,both
1970-01-03 01:17:16.250,1621.0,A,0.0,1.0,6.452044380000001,-6.275172560000001,-0.2595314514,0.5873532720000001,-0.25282053800000004,0.165742097,both
1970-01-03 01:17:16.500,1621.0,A,0.0,1.0,4.9973275,-8.670811,-1.174595366,-0.7033211180000001,-0.018249319999999968,0.36643792,both
1970-01-03 01:17:16.750,1621.0,A,0.0,1.0,5.78932914,-6.92783212,-0.98688994,-0.0015223659999999862,0.17732899,-0.5761080545999999,both
1970-01-03 01:17:17.000,1621.0,A,0.0,1.0,6.196822539999999,-7.612573660000001,-1.24067534,0.18212985999999995,0.23144333,-0.185156014,both
1970-01-03 01:17:17.250,1621.0,A,0.0,1.0,8.271158799999998,-6.5634345,0.10390829999999998,1.131069164,-0.24345472599999995,0.1734119974,both
1970-01-03 01:17:17.500,1621.0,A,0.0,1.0,4.223042560000001,-7.36884386,1.683123788,-0.468530742,0.190318814,0.054102386599999996,both
1970-01-03 01:17:17.750,1621.0,A,0.0,1.0,7.611795779999999,-7.3578307999999994,1.266053874,-0.28104109599999993,0.10935338799999998,-0.16022882199999997,both
1970-01-03 01:17:18.000,1621.0,A,0.0,1.0,6.026355359999999,-6.84499268,0.4817133859999999,-0.11996848999999996,-0.07409313960000001,-0.398208894,both
1970-01-03 01:17:18.250,1621.0,A,0.0,1.0,7.3809945599999995,-8.284387060000002,-0.5616797020000001,-0.6234154999999999,0.051826447999999914,0.2925085036,both
1970-01-03 01:17:18.500,1621.0,A,0.0,1.0,3.99990306,-6.29001676,-1.183214528,-1.21358414,0.31858995799999995,0.4256663560000001,both
1970-01-03 01:17:18.750,1621.0,A,0.0,1.0,7.49495896,-8.38446466,-2.29172986,0.173177128,-0.016116107999999983,-0.017909758000000005,both
1970-01-03 01:17:19.000,1621.0,A,0.0,1.0,5.21184788,-5.669439779999999,-1.5643714000000002,0.41905079,-0.103060346,-0.8720385140000001,both
1970-01-03 01:17:19.250,1621.0,A,0.0,1.0,7.236863680000001,-8.645432340000001,-3.2063148999999997,-0.6717799999999998,0.10764897599999994,0.541780444,both
1970-01-03 01:17:19.500,1621.0,A,0.0,1.0,5.6131160399999995,-6.45090714,-0.7536946959999999,0.05216816,0.211841405,0.3010304668,both
1970-01-03 01:17:19.750,1621.0,A,0.0,1.0,4.6444221,-11.592215800000002,1.82869134,2.7093623399999998,0.03777959399999999,2.006731748,both
1970-01-03 01:17:20.000,1621.0,A,0.0,1.0,-0.710449458,-6.33598554,2.15956984,1.406759394,0.17306422600000002,2.9279726399999997,both
1970-01-03 01:17:20.250,1621.0,A,0.0,1.0,-6.780229520000001,-4.40769538,0.8662221999999999,-0.3409117519999999,0.265739536,0.8756343220000001,both
1970-01-03 01:17:20.500,1621.0,A,0.0,1.0,-5.53811786,-5.829372510000001,1.6405070379999998,-0.6498398000000002,-0.02571467310000002,-0.65238109,both
1970-01-03 01:17:20.750,1621.0,A,0.0,1.0,-6.54559778,-7.71935512,-2.30561622,-4.1739494,0.309420706,-0.8270846199999999,both
1970-01-03 01:17:21.000,1621.0,A,0.0,1.0,-4.390337404,-6.88473652,-3.073197286,-0.055423000000000576,-0.19892536600000005,-0.7075618899999999,both
1970-01-03 01:17:21.250,1621.0,A,0.0,1.0,-3.44319122,-6.398234680000001,-1.9785682999999998,1.4065498799999996,0.5439825899999999,0.3990350100000001,both
1970-01-03 01:17:21.500,1621.0,A,0.0,1.0,-4.39177384,-8.646868940000001,-6.4169392,-0.5215785800000001,-0.05000881199999998,-0.211574558,both
1970-01-03 01:17:21.750,1621.0,A,0.0,1.0,-4.47269786,-6.312043439999999,-4.82527406,0.1919265739999998,0.59981843012,0.39882168399999995,both
1970-01-03 01:17:22.000,1621.0,A,0.0,1.0,-6.3133604,-6.7559285000000004,-9.032365279999999,-0.86034162,-0.644623444,-0.10547448800000003,both
1970-01-03 01:17:22.250,1621.0,A,0.0,1.0,-3.68883644,-6.08555198,-3.09330862,0.257124996,-1.7704024080000003,0.628705736,both
1970-01-03 01:17:22.500,1621.0,A,0.0,1.0,-10.108648800000001,-6.87180772,-3.6573825400000004,0.33766004999999993,-0.08366454599999998,0.22156167799999996,both
1970-01-03 01:17:22.750,1621.0,A,0.0,1.0,-7.88443532,-2.8054955799999997,-0.09864110000000004,0.5334542164,-1.60422054,1.4225408,both
1970-01-03 01:17:23.000,1621.0,A,0.0,1.0,-9.0628616,-1.853082136,3.838384239999999,-1.269187166,-0.74923775,0.7989349919999998,both
1970-01-03 01:17:23.250,1621.0,A,0.0,1.0,-7.15851346,-1.602648684,3.0061595999999997,-1.0738177119999999,0.10148241566,-0.17855163400000001,both
1970-01-03 01:17:23.500,1621.0,A,0.0,1.0,-11.474780299999999,-2.46264598,-0.69000892,-2.490832272,-0.04403271800000001,-0.8104664759999999,both
1970-01-03 01:17:23.750,1621.0,A,0.0,1.0,-5.67362954,-7.180659779999999,-1.122401752,-1.8471993019999995,-1.000427646,-0.6996790039999998,both
1970-01-03 01:17:24.000,1621.0,A,0.0,1.0,-8.07549276,-8.4419252,-0.7819462824000001,0.244555161,0.096153428,-0.22925822,both
1970-01-03 01:17:24.250,1621.0,A,0.0,1.0,-5.65351816,-5.02109,0.34141315600000005,0.2737433946,-0.230456628,-0.08267783599999999,both
1970-01-03 01:17:24.500,1621.0,A,0.0,1.0,-8.627116780000001,-7.105960999999999,0.49464210399999986,0.8014738000000001,0.256371856,-0.30041787600000003,both
1970-01-03 01:17:24.750,1621.0,A,0.0,1.0,-2.35957558,-8.373450799999999,0.14652511199999996,-0.6881919999999999,-0.359137916,-0.4352803408,both
1970-01-03 01:17:25.000,1621.0,A,0.0,1.0,-6.270264699999999,-9.6256188,0.29305028800000005,0.405620472,0.87039241,-0.008109330599999997,both
1970-01-03 01:17:25.250,1621.0,A,0.0,1.0,-5.32120314,-4.5781626200000005,0.758004278,3.9591293,1.6546406,0.09990849800000001,both
1970-01-03 01:17:25.500,1621.0,A,0.0,1.0,2.0438402399999998,-5.76425018,1.0338162999999998,-1.1151495399999998,1.9644163399999996,-4.62581752,both
1970-01-03 01:17:25.750,1621.0,A,0.0,1.0,11.82020356,-5.26338302,-2.4138341399999996,-1.46924236368,1.7409216399999998,-6.0879993720000005,both
1970-01-03 01:17:26.000,1621.0,A,0.0,1.0,8.9769697,-5.29881724,-3.61332916,-4.35653688,0.8505769539999999,-0.17322532200000001,both
1970-01-03 01:17:26.250,1621.0,A,0.0,1.0,11.574678600000002,-4.2688317,-3.075112672,3.8649583,-3.0519080799999996,0.738001864,both
1970-01-03 01:17:26.500,1621.0,A,0.0,1.0,10.41157514,-0.7464821599999999,-0.1771709340000001,1.2299203200000002,0.30260938,2.35762988,both
1970-01-03 01:17:26.750,1621.0,A,0.0,1.0,11.81194365,-5.0324623,-0.2992752175,-1.9731160666666667,0.74632648,-4.226982433333333,both
1970-01-03 01:18:03.500,1621.0,B,0.0,1.0,2.7439047333333337,-7.488713499999999,2.560199716666667,-1.55544105,0.49707369800000006,0.58321975,both
1970-01-03 01:18:03.750,1621.0,B,0.0,1.0,4.4121844999999995,-7.76292978,-1.7017985899999999,-0.92118262,0.32205074,-0.8473238334000002,both
1970-01-03 01:18:04.000,1621.0,B,0.0,1.0,7.486419349999999,-7.267649166666666,-3.4221123,-0.04916981166666667,-0.35138746000000004,-0.8653624683333333,both
1970-01-03 01:18:04.250,1621.0,B,0.0,1.0,8.55128006,-5.383093259999999,-2.46554888,0.6063812620000001,-0.153865462,0.0698685726,both
1970-01-03 01:18:04.500,1621.0,B,0.0,1.0,4.98583526,-7.6906245,0.1010353168,0.550342472,0.19576444999999995,0.633606508,both
1970-01-03 01:18:04.750,1621.0,B,0.0,1.0,7.02808936,-7.23429012,-0.509486128,0.221593094,-0.19772905600000001,-0.020678910000000005,both
1970-01-03 01:18:05.000,1621.0,B,0.0,1.0,6.758981,-6.8488234199999996,1.7793707519999997,1.01159061,-0.6969074472,-0.5814341759999999,both
1970-01-03 01:18:05.250,1621.0,B,0.0,1.0,8.4468934,-7.30659478,1.09367132,-0.7857339760000001,1.10468586,0.636375924,both
1970-01-03 01:18:05.500,1621.0,B,0.0,1.0,2.73959524,-7.44114894,1.366610354,-0.8905560000000001,1.8467490599999998,0.7612249199999999,both
1970-01-03 01:18:05.750,1621.0,B,0.0,1.0,0.4229656529999999,-13.814992900000002,0.4821921968,-0.39605652199999997,-0.81684477,2.30458,both
1970-01-03 01:18:06.000,1621.0,B,0.0,1.0,-2.275299592,-8.56546598,-0.1987186979999999,0.6391674039999999,-1.85867344,5.61670032,both
1970-01-03 01:18:06.250,1621.0,B,0.0,1.0,-5.529977440000001,4.16641982,3.87669146,1.74554254,-1.057153514,1.7346635620000002,both
1970-01-03 01:18:06.500,1621.0,B,0.0,1.0,-6.0715458,7.4866987,3.1268273399999997,0.7224604780000001,0.075013242,0.8747821000000002,both
1970-01-03 01:18:06.750,1621.0,B,0.0,1.0,-4.73510248,6.839785220000001,1.83731044,-0.063921894,0.33196223799999997,1.10892722,both
1970-01-03 01:18:07.000,1621.0,B,0.0,1.0,-2.3959673799999996,11.30066186,2.22038262,0.80618333,-0.38708646320000006,0.3830560487999999,both
1970-01-03 01:18:07.250,1621.0,B,0.0,1.0,-2.56930768,7.721330259999999,2.4339454399999996,-0.9078230919999999,-0.53090408,-0.759759658,both
1970-01-03 01:18:07.500,1621.0,B,0.0,1.0,-4.751382960000001,9.8526488,4.50923944,-0.9881379579999999,0.6743256896000001,-0.10419590640000001,both
1970-01-03 01:18:07.750,1621.0,B,0.0,1.0,-4.277809960000001,3.6373011800000006,3.2652122700000006,-2.6584739799999997,0.9014424919999999,0.19450423919999998,both
1970-01-03 01:18:08.000,1621.0,B,0.0,1.0,-8.14300926,4.7826871,9.00890214,-0.7452645660000001,0.18282469,-0.167898722,both
1970-01-03 01:18:08.250,1621.0,B,0.0,1.0,-5.167016459999999,1.389145724,4.65576458,-0.6135979,0.3110825172,0.316583544,both
1970-01-03 01:18:08.500,1621.0,B,0.0,1.0,-10.264750600000001,0.133147548,5.80354502,-2.175917912,1.0216192200000003,0.9868479027999999,both
1970-01-03 01:18:08.750,1621.0,B,0.0,1.0,-5.3729177,-2.195931934,2.08391312,-1.60301869,0.504965966,-0.28656919399999997,both
1970-01-03 01:18:09.000,1621.0,B,0.0,1.0,-3.1424795999999997,-11.313052039999999,-3.8201881799999997,0.029388918000000163,4.509940240000001,-3.5030287,both
1970-01-03 01:18:09.250,1621.0,B,0.0,1.0,-5.58456526,-8.31551146,-5.4841584,0.02448774,2.0790086399999996,-0.9855959659999998,both
1970-01-03 01:18:09.500,1621.0,B,0.0,1.0,0.941549728,-11.448084920000003,-4.8449065,0.664283344,-3.2334610400000003,0.36196354599999997,both
1970-01-03 01:18:09.750,1621.0,B,0.0,1.0,2.8415882000000003,-10.31227564,-0.8595184,-0.5511848359999999,2.0035946499999997,0.44718469799999994,both
1970-01-03 01:18:10.000,1621.0,B,0.0,1.0,-3.8679226,-6.9814622,-5.70873454,0.14592449000000007,3.2972512099999998,1.89445296,both
1970-01-03 01:18:10.250,1621.0,B,0.0,1.0,-7.839424416000002,-10.2754047,-4.46279202,0.58247028,-3.0457601600000004,4.7593752,both
1970-01-03 01:18:10.500,1621.0,B,0.0,1.0,-6.0562233,5.7197778,2.316629538,2.87491716,-1.5748392240000002,2.323328432,both
1970-01-03 01:18:10.750,1621.0,B,0.0,1.0,-3.12284688,6.144030240000001,-2.37648459,-0.8871794120000001,0.6168509399999998,-0.603166046,both
1970-01-03 01:18:11.000,1621.0,B,0.0,1.0,-3.7113419999999997,3.4194286500000004,-0.6033388399999999,-4.041214332,-1.9674805239999997,-3.7469744000000005,both
1970-01-03 01:18:11.250,1621.0,B,0.0,1.0,-0.6199487100000001,-15.3697872,-3.5218706400000004,-1.7487582960000005,3.6413377799999997,-3.727799660000001,both
1970-01-03 01:18:11.500,1621.0,B,0.0,1.0,-0.005117639999999923,-8.72827178,0.995988012,2.1366870980000003,-1.26356584,-0.7203451280000001,both
1970-01-03 01:18:11.750,1621.0,B,0.0,1.0,4.67602552,-4.619342860000001,0.6890512632,0.902032886,-0.3071490080000001,-0.7160840498,both
1970-01-03 01:18:12.000,1621.0,B,0.0,1.0,4.514177340000001,-7.272597291999999,5.9577312739999995,-0.30683239999999995,1.28798356,-0.7648731712,both
1970-01-03 01:18:12.250,1621.0,B,0.0,1.0,6.33951674,-8.65213628,4.99717766,0.592258144,-2.039702294,0.344067096,both
1970-01-03 01:18:12.500,1621.0,B,0.0,1.0,7.677875780000001,-7.06094976,3.899196746,-1.10172046,1.8229380399999997,0.3297925558,both
1970-01-03 01:18:12.750,1621.0,B,0.0,1.0,-2.88773638,-3.5960608736,-0.03926489999999996,-1.7423719800000002,0.8671854,0.8438891680000001,both
1970-01-03 01:18:13.000,1621.0,B,0.0,1.0,2.6816555600000003,-8.86665648,-5.71400184,0.280989056,-4.09736914,1.492848248,both
1970-01-03 01:18:13.250,1621.0,B,0.0,1.0,2.267059600000001,-10.40963965,-1.4081896475000002,-0.6138356566666666,1.8565049500000004,-1.7133137166666668,both
1970-01-03 01:18:13.500,1621.0,B,0.0,1.0,-1.8443433599999999,-9.034250854,-3.1953015799999998,0.42607037000000003,-2.7736579260000003,1.8840131,both
1970-01-03 01:18:13.750,1621.0,B,0.0,1.0,6.2126240600000004,-2.61012878,-1.0050858799999998,-0.8846291900000001,0.25552495599999997,-0.1157012892,both
1970-01-03 01:18:14.000,1621.0,B,0.0,1.0,-3.75731034,-10.34004814,-6.14160616,-0.2616558339999999,4.089399899999999,-0.919549572,both
1970-01-03 01:18:14.250,1621.0,B,0.0,1.0,1.1469724199999998,-9.228660020000001,-5.63978152,2.1626729764,-2.127270228,1.6709604380000003,both
1970-01-03 01:18:14.500,1621.0,B,0.0,1.0,6.6454959,-6.574926633999999,-2.41718597,-1.7283126800000002,1.3883167100000002,-0.4469982719999999,both
1970-01-03 01:18:14.750,1621.0,B,0.0,1.0,-5.359031404,-4.26978934,-3.9729383,0.4282085995999999,2.4755256599999997,-0.1704556148,both
1970-01-03 01:18:15.000,1621.0,B,0.0,1.0,3.7011066,-7.88263968,-6.633375119999999,0.8707176100000001,-4.6410767,0.83281022,both
1970-01-03 01:18:15.250,1621.0,B,0.0,1.0,4.831648534000001,-10.765258560000001,-3.2240319399999997,-0.738684392,2.7863738739999997,-1.4555908739999999,both
1970-01-03 01:18:15.500,1621.0,B,0.0,1.0,-4.2514736,-8.61047688,-5.19254468,0.16103565199999997,-1.4998203,0.400312774,both
1970-01-03 01:18:15.750,1621.0,B,0.0,1.0,5.23962072,-2.65418218,-1.9527109,0.6250633400000002,-1.2179484859999998,-0.03048013599999999,both
1970-01-03 01:18:16.000,1621.0,B,0.0,1.0,1.9107225799999994,-13.693367279999999,-3.0612263200000003,-0.4465933280000002,3.39954774,-0.35048558799999996,both
1970-01-03 01:18:16.250,1621.0,B,0.0,1.0,-0.6070200079999994,-9.942131960000001,-3.6976050999999996,0.432461918,-3.1639708399999997,1.3916478600000002,both
1970-01-03 01:18:16.500,1621.0,B,0.0,1.0,5.704095699999999,-3.94417786,-1.538992882,-0.6129887500000001,0.45899367999999996,-0.48577416399999995,both
1970-01-03 01:18:16.750,1621.0,B,0.0,1.0,-3.3656191399999997,-7.81512326,-3.5213918800000004,0.02297350199999997,2.9478785999999997,-0.7322763480000001,both
1970-01-03 01:18:17.000,1621.0,B,0.0,1.0,3.08675438,-11.006115187999999,-4.42640008,0.46463213400000003,-4.24798266,1.42403186,both
1970-01-03 01:18:17.250,1621.0,B,0.0,1.0,1.2853569999999999,-8.491724940000001,-7.9902890200000005,-2.17040106,1.60840702,1.2991829259999998,both
1970-01-03 01:18:17.500,1621.0,B,0.0,1.0,-3.0333039399999997,-3.8776191299999994,-4.286099782,-0.8219894520000001,-0.57943304,-0.28571749280000003,both
1970-01-03 01:18:17.750,1621.0,B,0.0,1.0,-0.8497919080000003,-7.971703960000001,-7.72979966,-0.2631529920000001,-1.32170712,-0.533284943,both
1970-01-03 01:18:18.000,1621.0,B,0.0,1.0,-2.5161562,-6.800939219999999,-10.828375659999999,0.3593871868000001,2.297422836,1.203309124,both
1970-01-03 01:18:18.250,1621.0,B,0.0,1.0,-3.05724598,-3.5802593600000003,-8.45763725,-0.45042825000000003,-1.3276696860000001,-1.3769743939999999,both
1970-01-03 01:18:18.500,1621.0,B,0.0,1.0,1.82213714,-5.086212011999999,-4.05721418,0.8172354126,-0.45031630739999995,-0.470008254,both
1970-01-03 01:18:18.750,1621.0,B,0.0,1.0,-3.58540676,-8.470176734,-8.5080351,0.26137865999999993,1.91585225,0.880960094,both
1970-01-03 01:18:19.000,1621.0,B,0.0,1.0,-1.1342231600000001,-8.57312738,-8.69143102,-1.1273027660000001,-2.547814,-1.5738352485999998,both
1970-01-03 01:18:19.250,1621.0,B,0.0,1.0,0.88696196,-5.056524260000001,-7.692091339999999,0.7991226734,0.8363159580000001,1.7762083199999998,both
1970-01-03 01:18:19.500,1621.0,B,0.0,1.0,-3.9450159199999995,-2.9074887800000004,-5.0374002,2.00074586,1.2131979467999998,0.299751834,both
1970-01-03 01:18:19.750,1621.0,B,0.0,1.0,0.435415552,-9.120920710000002,-2.90273012,1.7651092819999998,-1.8890650839999996,-1.213349764,both
1970-01-03 01:18:20.000,1621.0,B,0.0,1.0,5.503461572000001,-10.326640959999999,0.38881837365999994,-0.72228311,2.21475966,-0.585482908,both
1970-01-03 01:18:20.250,1621.0,B,0.0,1.0,-2.6305993460000003,-9.35507371,-2.2041020799999997,0.6576604159999999,-2.26893848,0.44334951599999994,both
1970-01-03 01:18:20.500,1621.0,B,0.0,1.0,5.77592194,-2.10399446,-1.514093152,0.33083177159999994,0.08317506399999997,0.898004344,both
1970-01-03 01:18:20.750,1621.0,B,0.0,1.0,-0.6003161599999999,-13.062255579999999,-2.1112069399999998,-2.466127834,3.2263466999999997,-1.8795661599999995,both
1970-01-03 01:18:21.000,1621.0,B,0.0,1.0,1.3351565400000003,-6.1047055,-13.273334360000002,3.5641213400000007,-2.6752182400000004,-2.47994915,both
1970-01-03 01:18:21.250,1621.0,B,0.0,1.0,8.39422068,-4.908562400000001,5.3486467,-0.5603697999999998,0.629231998,-1.305814732,both
1970-01-03 01:18:21.500,1621.0,B,0.0,1.0,-4.69966824,-5.208795139999999,-0.99886096,-2.8570787199999996,1.6339872739999997,-0.1747169466,both
1970-01-03 01:18:21.750,1621.0,B,0.0,1.0,6.125954039999999,-7.322875459999999,0.15227119999999994,1.7749061999999998,-2.4902937687999995,1.1911651060000001,both
1970-01-03 01:18:22.000,1621.0,B,0.0,1.0,4.183777640000001,-9.673023820000001,2.2965182792,-0.9785902199999998,2.46766136,-1.499905872,both
1970-01-03 01:18:22.250,1621.0,B,0.0,1.0,-1.2587215999999999,-4.00020218,-9.484151059999999,-4.6970052,0.11534978000000003,-1.21505421,both
1970-01-03 01:18:22.500,1621.0,B,0.0,1.0,3.3673549199999995,2.9477711600000003,-4.883692868,2.4532621640000007,-0.868741472,-0.623193262,both
1970-01-03 01:18:22.750,1621.0,B,0.0,1.0,3.7263656345999996,-10.511473220000001,-5.7456051839999995,1.1585403600000002,1.87218384,1.109778886,both
1970-01-03 01:18:23.000,1621.0,B,0.0,1.0,-1.82088018,-11.034366879999999,-1.28760168,-0.004302613999999994,-2.4446936800000003,1.4003830308,both
1970-01-03 01:18:23.250,1621.0,B,0.0,1.0,2.7668890940000006,-5.602880880000001,3.68802828,0.300574372,0.4815907599999999,0.699865164,both
1970-01-03 01:18:23.500,1621.0,B,0.0,1.0,-6.05718066,-7.725580007999999,-2.322375674,-1.027597756,1.598627942,-0.5854828819999999,both
1970-01-03 01:18:23.750,1621.0,B,0.0,1.0,-1.6255133059999998,-11.58311812,-3.19865342,-0.631530652,-3.0776730800000003,0.18789905199999998,both
1970-01-03 01:18:24.000,1621.0,B,0.0,1.0,0.37220862360000007,-11.23595852,0.7259219700000001,0.755231752,1.8170018399999996,-0.320232062,both
1970-01-03 01:18:24.250,1621.0,B,0.0,1.0,-6.49771372,-2.5383025320000003,-4.59064238,-0.011330393999999933,1.0333896260000004,0.250962708,both
1970-01-03 01:18:24.500,1621.0,B,0.0,1.0,1.7943643719999998,-9.339750806000001,0.2628833459999999,-0.77490872,-2.4412955,-0.5695038999999998,both
1970-01-03 01:18:24.750,1621.0,B,0.0,1.0,2.965607792,-10.5871303,-5.32039492,-0.09484625999999996,3.3326547320000004,-0.6589862080000001,both
1970-01-03 01:18:25.000,1621.0,B,0.0,1.0,-3.33305796,-7.478498419999999,-5.73794372,0.580096152,-1.4744415799999997,0.631687964,both
1970-01-03 01:18:25.250,1621.0,B,0.0,1.0,4.50412202,-2.7887361039999994,-1.499727958,0.012523278000000016,-1.49809045,-0.19431808000000003,both
1970-01-03 01:18:25.500,1621.0,B,0.0,1.0,0.8596680099999998,-13.70821128,-3.2518047399999994,-0.6308895800000001,3.5966312,-0.505161964,both
1970-01-03 01:18:25.750,1621.0,B,0.0,1.0,-0.17223310000000006,-10.474123685999999,-5.44872412,0.9793641552000001,-2.33710476,0.63658843,both
1970-01-03 01:18:26.000,1621.0,B,0.0,1.0,4.20197364,-4.11225084,-0.6095637679999999,0.11692182399999998,-0.798003108,0.43035303,both
1970-01-03 01:18:26.250,1621.0,B,0.0,1.0,-2.96195668,-9.06441758,-0.764229168,2.1373012559999998,1.27819904,-0.06307750599999999,both
1970-01-03 01:18:26.500,1621.0,B,0.0,1.0,2.7577911800000003,-11.86132414,4.59543072,-0.06481097599999996,-3.40832926,1.3513805939999999,both
1970-01-03 01:18:26.750,1621.0,B,0.0,1.0,4.92406502,-9.144383880000001,3.2594661799999995,-0.6398390920000001,1.599902272,-0.6052971340000001,both
1970-01-03 01:18:27.000,1621.0,B,0.0,1.0,-4.04126288,-6.2435693599999995,2.65804274,0.8647403919999999,0.03183296599999981,0.0511188628,both
1970-01-03 01:18:27.250,1621.0,B,0.0,1.0,4.0449139,-8.61239252,4.240610139999999,-0.08483632200000002,-2.096778344,1.4393714199999998,both
1970-01-03 01:18:27.500,1621.0,B,0.0,1.0,2.34072126,-12.460832139999999,3.156036594,-0.212029056,2.3323783600000003,-0.647907656,both
1970-01-03 01:18:27.750,1621.0,B,0.0,1.0,-2.2551883999999993,-8.302582585,1.4274229576,0.7488388639999999,-1.8097948119999998,0.396690618,both
1970-01-03 01:18:28.000,1621.0,B,0.0,1.0,6.770473139999998,-3.66453504154,2.67288682,-2.107987326,0.9315566719999999,0.64297981142,both
1970-01-03 01:18:28.250,1621.0,B,0.0,1.0,0.8606257799999998,-12.81900474,-4.58345966,-0.40654619300000017,4.33635368,-0.647268508,both
1970-01-03 01:18:28.500,1621.0,B,0.0,1.0,-0.39058409999999977,-8.51470894,-4.177881900000001,-0.30215025199999995,-2.1387497800000004,0.746523452,both
1970-01-03 01:18:28.750,1621.0,B,0.0,1.0,4.6257473000000005,-2.819381988,-1.89477124,-0.01623779399999985,0.31328334,0.48489451200000006,both
1970-01-03 01:18:29.000,1621.0,B,0.0,1.0,-3.2008979759999994,-8.234587399999999,-2.525882773,0.006131665999999991,2.6954295200000002,-0.432724288,both
1970-01-03 01:18:29.250,1621.0,B,0.0,1.0,1.483596928,-11.092785379999999,-3.252283568,0.22664697200000009,-3.58346168,1.354576394,both
1970-01-03 01:18:29.500,1621.0,B,0.0,1.0,5.9305874,-8.081837199999999,-3.1531636212,-1.268128366,2.56481218,-0.605723164,both
1970-01-03 01:18:29.750,1621.0,B,0.0,1.0,-6.184552,-4.28080286,-4.493437760000001,0.7780304159999999,0.5486947799999999,-0.40460127100000004,both
1970-01-03 01:18:30.000,1621.0,B,0.0,1.0,7.62376676,-7.830925071999999,-0.13934270000000054,0.33146981,-4.419482319999999,0.9523325539999998,both
1970-01-03 01:18:30.250,1621.0,B,0.0,1.0,4.76413228,-9.732878739999999,-3.033932402,-1.278571348,1.0231675784,-1.5097065920000001,both
1970-01-03 01:18:30.500,1621.0,B,0.0,1.0,-5.3413143199999995,-6.487777680000001,-4.52982966,0.680661094,-1.8004190860000002,0.03513986999999996,both
1970-01-03 01:18:30.750,1621.0,B,0.0,1.0,5.46563336,-3.4998139599999996,-2.5641900939999998,0.5404722719999999,-0.8308154220000002,0.96724628,both
1970-01-03 01:18:31.000,1621.0,B,0.0,1.0,2.6548404339999996,-12.16012034,-5.59141862,-0.7723588200000002,3.6616163999999998,-0.828363442,both
1970-01-03 01:18:31.250,1621.0,B,0.0,1.0,-2.2058679999999997,-7.1825751948,-6.665457379999999,-0.08632849199999999,0.12941258000000017,0.372615672,both
1970-01-03 01:18:31.500,1621.0,B,0.0,1.0,4.3820175599999995,-1.10417584,-2.195482932,-0.043720502000000036,-0.03633837399999993,0.42097866,both
1970-01-03 01:18:31.750,1621.0,B,0.0,1.0,2.29235844,-12.829539180000001,-4.44555366,-0.12659870319999994,3.280257,0.30656923999999997,both
1970-01-03 01:18:32.000,1621.0,B,0.0,1.0,-0.4317643399999997,-9.814760416,-5.60051646,1.663688852,-1.8464416600000004,0.45804986999999997,both
1970-01-03 01:18:32.250,1621.0,B,0.0,1.0,4.54434446,-3.35328893,-0.860954928,-0.4135739984000001,0.1568897440000001,-0.15469025100000003,both
1970-01-03 01:18:32.500,1621.0,B,0.0,1.0,-1.83380886,-7.83762864,-2.9142222799999997,-0.23631582400000006,2.15618122,-0.3434551076,both
1970-01-03 01:18:32.750,1621.0,B,0.0,1.0,1.3404238000000002,-11.0434649,-4.515943376,0.77483047,-3.0550876,0.63680122,both
1970-01-03 01:18:33.000,1621.0,B,0.0,1.0,4.20628308,-5.323716879999999,-2.2984336599999997,-0.92554303,1.5050937260000001,-0.60337961,both
1970-01-03 01:18:33.250,1621.0,B,0.0,1.0,-4.6393343,-5.2758328452,-3.0913932199999996,0.39198215079999993,0.9358058,0.010212687999999994,both
1970-01-03 01:18:33.500,1621.0,B,0.0,1.0,4.07939052,-8.733538959999999,-2.9314605140000003,0.1422841800000001,-3.3923635280000006,0.41501315559999996,both
1970-01-03 01:18:33.750,1621.0,B,0.0,1.0,2.8085481899999998,-11.493095639999998,-3.3207576899999998,-1.259825382,3.0795586,-0.456799232,both
1970-01-03 01:18:34.000,1621.0,B,0.0,1.0,-3.4077571199999994,-9.10799204,-5.986940819999999,1.409727282,-1.7569550280000001,-0.1843045940000001,both
1970-01-03 01:18:34.250,1621.0,B,0.0,1.0,5.09070114,-0.6320392999999997,-2.0604499065999997,-0.13532606399999994,-1.2505387,0.3853988240000001,both
1970-01-03 01:18:34.500,1621.0,B,0.0,1.0,2.4743175881999995,-13.36584058,-3.4677617399999994,-0.19007914799999998,2.8055595,-0.568865058,both
1970-01-03 01:18:34.750,1621.0,B,0.0,1.0,-2.06460984,-10.258166546000002,-6.772717640000001,1.075027948,-1.91270804,0.807669632,both
1970-01-03 01:18:35.000,1621.0,B,0.0,1.0,5.510165459999999,-1.2080843400000003,-1.6543933367999997,-0.200733366,-0.27283898400000006,0.10821703280000002,both
1970-01-03 01:18:35.250,1621.0,B,0.0,1.0,-1.2252028899999998,-10.484657980000001,-3.5917813,0.09370698800000006,2.21710798,-0.29040493,both
1970-01-03 01:18:35.500,1621.0,B,0.0,1.0,-0.28188742000000033,-11.58359664,-4.32440708,0.8700736424000001,-3.1303095,1.305148116,both
1970-01-03 01:18:35.750,1621.0,B,0.0,1.0,4.06885592,-5.235610266,0.426646748,0.010403682000000058,0.13472854400000003,-0.24268108000000002,both
1970-01-03 01:18:36.000,1621.0,B,0.0,1.0,-3.35843646,-8.622447966,-1.1693281299999998,-0.53672233,1.8159394739999999,-0.2011357728,both
1970-01-03 01:18:36.250,1621.0,B,0.0,1.0,-3.8296154199999997,-11.655901346,-3.533362826,-1.463715384,-2.67223264,-0.0064054759999999655,both
1970-01-03 01:18:36.500,1621.0,B,0.0,1.0,1.297807,-8.247037119999998,-1.07116586,0.13992462800000002,1.167422508,-0.11804513999999999,both
1970-01-03 01:18:36.750,1621.0,B,0.0,1.0,-6.07872854,-4.6016258919999995,-2.9731197199999997,-1.2621764199999999,0.9028108099999999,0.144009902,both
1970-01-03 01:18:37.000,1621.0,B,0.0,1.0,-1.0571298000000002,-10.30988136,-6.5060036088,-0.13129789000000006,-2.45915304,-1.13878174,both
1970-01-03 01:18:37.250,1621.0,B,0.0,1.0,0.7279869600000001,-11.501714920000001,-5.645048640000001,-0.030738470000000073,1.9229212920000003,0.99430369,both
1970-01-03 01:18:37.500,1621.0,B,0.0,1.0,-6.5942799166666655,-5.9576218333333335,-6.625155206666666,0.6875281433333335,-1.2998134033333333,-0.4167100483333333,both
1970-01-03 01:18:37.750,1621.0,B,0.0,1.0,2.771677584,-5.92753464,-2.475604494,-1.1194472219999998,-1.593714932,-0.8535039699999999,both
1970-01-03 01:18:38.000,1621.0,B,0.0,1.0,-1.620246032,-9.36465044,-8.477389399999998,-0.43660988199999995,2.35734608,0.6414881392,both
1970-01-03 01:18:38.250,1621.0,B,0.0,1.0,-2.9078477200000004,-8.58126782,-9.300994679999999,0.57880211,-2.331738152,-1.0501517999999999,both
