"Time (s)","Linear Acceleration x (m/s^2)","Linear Acceleration y (m/s^2)","Linear Acceleration z (m/s^2)"
0.000000000E0,-7.301921844E-1,-4.444503784E-1,7.089574337E-1
9.999000000E-3,-1.552537441E0,-5.411987305E-1,3.220167160E-1
1.999850000E-2,-1.736273289E0,-5.295839310E-1,1.874978542E-1
2.999850000E-2,-1.737220526E0,-5.275030136E-1,1.821143627E-1
3.999825000E-2,-1.737871170E0,-5.252075195E-1,1.763768196E-1
4.999805000E-2,-1.739020586E0,-5.225925446E-1,1.696553230E-1
5.999788300E-2,-1.740358353E0,-5.197610855E-1,1.623330116E-1
6.999788300E-2,-1.741855860E0,-5.167455673E-1,1.544985771E-1
7.999788300E-2,-1.743699789E0,-5.136060715E-1,1.462259293E-1
8.999777100E-2,-1.745646238E0,-5.102920532E-1,1.375334263E-1
9.999767100E-2,-1.747505188E0,-5.069417953E-1,1.288049221E-1
1.099975800E-1,-1.749614239E0,-5.035791397E-1,1.199300289E-1
1.199974960E-1,-1.751917839E0,-5.000858307E-1,1.106994152E-1
1.299974190E-1,-1.754236221E0,-4.964771271E-1,1.012217999E-1
1.399974190E-1,-1.756469965E0,-4.928445816E-1,9.174847603E-2
1.499973520E-1,-1.758929968E0,-4.892625809E-1,8.231091499E-2
1.599972890E-1,-1.761114597E0,-4.855442047E-1,7.272648811E-2
1.699972300E-1,-1.763560295E0,-4.818449020E-1,6.307530403E-2
1.799972300E-1,-1.765942812E0,-4.781465530E-1,5.349683762E-2
1.899972300E-1,-1.768453360E0,-4.743471146E-1,4.366803169E-2
1.999971800E-1,-1.770769596E0,-4.704713821E-1,3.375577927E-2
2.099971320E-1,-1.773366213E0,-4.666643143E-1,2.391886711E-2
2.199970860E-1,-2.045147657E0,-3.697109222E-2,-9.266700745E-1
2.299970860E-1,-2.313778400E0,4.455800056E-1,-1.746948719E0
2.399970860E-1,-2.573140621E0,9.568886757E-1,-2.446722984E0
2.499970460E-1,-2.819278002E0,1.477760315E0,-3.037712574E0
2.599970070E-1,-3.049403667E0,1.993828773E0,-3.532653332E0
2.699969690E-1,-3.262577534E0,2.494822502E0,-3.944371223E0
2.799969330E-1,-3.458244562E0,2.973805904E0,-4.284924507E0
2.899969330E-1,-3.637098789E0,3.426124573E0,-4.565140724E0
2.999969330E-1,-3.799427271E0,3.849348545E0,-4.794762611E0
3.099969330E-1,-3.946271658E0,4.242343903E0,-4.982201576E0
3.199969330E-1,-4.079099178E0,4.605396271E0,-5.134816170E0
3.299968990E-1,-4.198568344E0,4.938910484E0,-5.258606911E0
3.399969320E-1,-4.306130409E0,5.244214058E0,-5.358770370E0
3.499969650E-1,-4.402504921E0,5.522627354E0,-5.439568520E0
3.599969650E-1,-4.489181519E0,5.776244164E0,-5.504662514E0
3.699969310E-1,6.502742767E-1,-2.143518925E0,7.356643677E-3
3.799968970E-1,5.806136727E-1,-1.932120323E0,-8.721923828E-2
3.899969300E-1,5.251931548E-1,-1.728587747E0,-1.182661057E-1
3.999969300E-1,4.571841359E-1,-1.559940100E0,-1.640586853E-1
4.099969300E-1,4.258679152E-1,-1.408119440E0,-1.683740616E-1
4.199969300E-1,3.850637674E-1,-1.273705244E0,-1.850109100E-1
4.299969300E-1,3.341423273E-1,-1.126386881E0,-2.052736282E-1
4.399968960E-1,2.947230339E-1,-1.015808344E0,-2.154741287E-1
4.499969290E-1,2.615952492E-1,-9.235160351E-1,-2.162590027E-1
4.599969290E-1,2.246090174E-1,-8.461765647E-1,-2.415695190E-1
4.699969290E-1,2.024804354E-1,-7.537305355E-1,-2.271518707E-1
4.799968950E-1,1.882171631E-1,-6.742620468E-1,-2.403774261E-1
4.899968610E-1,1.446962357E-1,-6.141377091E-1,-2.167205811E-1
4.999968940E-1,1.348325014E-1,-5.536185503E-1,-2.546453476E-1
5.099968940E-1,1.128205061E-1,-4.871174693E-1,-2.489557266E-1
5.199968940E-1,9.486603737E-2,-4.357233047E-1,-2.476034164E-1
5.299968600E-1,8.800208569E-2,-3.893485963E-1,-2.482967377E-1
5.399968600E-1,9.485590458E-2,-3.619107604E-1,-2.391929626E-1
5.499968600E-1,8.094298840E-2,-3.337005079E-1,-2.417974472E-1
5.599968260E-1,6.075525284E-2,-2.941110134E-1,-2.322778702E-1
5.699968260E-1,4.176962376E-2,-2.723475695E-1,-2.442092896E-1
5.799968260E-1,4.279935360E-2,-2.580854893E-1,-2.440872192E-1
5.899967920E-1,3.763115406E-2,-2.320148647E-1,-2.415380478E-1
5.999967920E-1,1.878082752E-2,-1.865687966E-1,-2.700700760E-1
6.099968250E-1,2.215683460E-2,-1.864751577E-1,-2.459001541E-1
6.199968250E-1,1.877641678E-2,-1.546571255E-1,-2.432403564E-1
6.299968250E-1,-1.027536392E-2,-1.653651297E-1,-2.405881882E-1
6.399967910E-1,-2.195692062E-2,-1.580307633E-1,-2.116289139E-1
6.499967910E-1,8.042573929E-3,-1.160633266E-1,-2.497930527E-1
6.599968240E-1,2.148282528E-2,-1.064203531E-1,-2.903318405E-1
6.699968240E-1,-1.077175140E-2,-9.345769882E-2,-1.871299744E-1
6.799968240E-1,-6.709218025E-3,-8.374404907E-2,-2.731018066E-1
6.899967900E-1,4.815220833E-3,-4.897339642E-2,-2.417554855E-1
6.999968230E-1,-2.662062645E-3,-7.521152496E-2,-2.391290665E-1
7.099968230E-1,-1.496958733E-2,-6.882660091E-2,-2.628068924E-1
7.199968230E-1,-2.453255653E-2,-7.710728049E-2,-2.146978378E-1
7.299968230E-1,-2.629303932E-2,-7.147760689E-2,-2.504673004E-1
7.399968230E-1,-1.604032516E-2,-5.673697591E-2,-2.239789963E-1
7.499967890E-1,-1.981592178E-2,-6.146237254E-2,-2.358407974E-1
7.599968220E-1,-1.626503468E-2,-4.009702802E-2,-2.429275513E-1
7.699968550E-1,-1.299750805E-2,-4.786108434E-2,-2.403850555E-1
7.799968550E-1,-1.692938805E-2,-1.541770995E-2,-2.378292084E-1
7.899968550E-1,-3.022205830E-2,-1.713953912E-2,-2.448682785E-1
7.999968210E-1,-5.291688442E-2,-1.241604984E-2,-2.495260239E-1
8.099968540E-1,-2.941119671E-2,-1.522742212E-2,-2.494955063E-1
8.199968540E-1,-5.160760880E-2,-2.069769800E-2,-2.398509979E-1
8.299968540E-1,-3.035902977E-2,-1.682879031E-2,-2.494087219E-1
8.399968200E-1,-1.618611813E-2,-1.797221601E-2,-2.470073700E-1
8.499968530E-1,-3.109300137E-2,-3.107452393E-2,-2.301874161E-1
8.599969190E-1,-1.253497601E-2,-9.062290192E-4,-2.492761612E-1
8.699969190E-1,-3.462970257E-2,1.444460452E-2,-2.396335602E-1
8.799968850E-1,-3.512096405E-2,-1.154009998E-2,-2.467479706E-1
8.899968510E-1,-4.496800900E-2,-1.356999576E-2,-2.562894821E-1
8.999968510E-1,-4.759347439E-2,-2.255633473E-2,-2.514762878E-1
9.099967840E-1,-3.083109856E-2,-5.211845040E-3,-2.371215820E-1
9.199968170E-1,-3.820204735E-2,-1.189984381E-2,-2.442836761E-1
9.299968170E-1,-3.594565392E-2,-1.612366736E-2,-2.394828796E-1
9.399968170E-1,-3.364503384E-2,-1.566284895E-2,-2.490539551E-1
9.499967830E-1,-4.068350792E-2,-6.206050515E-3,-2.442846298E-1
9.599967830E-1,-2.858090401E-2,3.847360611E-3,-2.491016388E-1
9.699968160E-1,-1.910567284E-2,-1.076146960E-3,-2.419013977E-1
9.799967820E-1,-1.931035519E-2,6.216347218E-3,-2.490549088E-1
9.899967820E-1,-4.871487617E-2,-5.732506514E-3,-2.441644669E-1
9.999967480E-1,-4.406976700E-2,-2.024801075E-2,-2.393512726E-1
1.009996781E0,-2.743005753E-2,1.257821918E-3,-2.465152740E-1
1.019996814E0,-2.990686893E-2,6.062731147E-3,-2.153778076E-1
1.029996814E0,-3.469359875E-2,-1.063638926E-2,-2.345333099E-1
1.039996814E0,-2.748250961E-2,-1.059141755E-2,-2.297506332E-1
1.049996814E0,-3.242290020E-2,1.345172524E-3,-2.584581375E-1
1.059996780E0,-3.221940994E-2,-5.911529064E-3,-2.321491241E-1
1.069996780E0,-2.017295361E-2,-3.376349807E-3,-2.561063766E-1
1.079996813E0,-3.981459141E-2,-3.370419145E-3,-2.560329437E-1
1.089996813E0,-3.321158886E-2,-2.014324069E-2,-2.535505295E-1
1.099996813E0,-3.356671333E-2,-1.737263799E-2,-2.343492508E-1
1.109996746E0,-5.322396755E-2,-1.214702427E-2,-2.390680313E-1
1.119996779E0,-4.122614861E-2,-4.602164030E-3,-2.390775681E-1
1.129996812E0,-3.648042679E-2,-7.024526596E-3,-2.678022385E-1
1.139996812E0,-5.331540108E-2,-1.666098833E-3,-2.175207138E-1
1.149996778E0,-3.681409359E-2,5.496218801E-3,-2.462120056E-1
1.159996711E0,-3.458523750E-2,-1.114146411E-2,-2.461891174E-1
1.169996711E0,-2.983999252E-2,-1.688137650E-3,-2.461805344E-1
1.179996711E0,-3.466427326E-2,-4.122674465E-3,-2.509632111E-1
1.189996744E0,-3.207767010E-2,-4.164099693E-3,-2.485961914E-1
1.199996710E0,-1.518368721E-2,-6.557896733E-3,-2.390403748E-1
1.209996743E0,-1.743304729E-2,3.952533007E-4,-2.318754196E-1
1.219996709E0,-2.461230755E-2,8.028745651E-4,-2.342777252E-1
1.229996742E0,-3.427791595E-2,-6.462171674E-3,-2.390508652E-1
1.239996775E0,-2.713966370E-2,-8.940190077E-3,-2.366485596E-1
1.249996775E0,-2.988505363E-2,-6.124541163E-3,-2.318134308E-1
1.259996741E0,-4.666483402E-2,-6.210803986E-3,-2.342033386E-1
1.269996707E0,-4.686748981E-2,1.392289996E-3,-2.509393692E-1
1.279996773E0,-4.673826694E-2,-3.517538309E-3,-2.509574890E-1
1.289996773E0,-3.479886055E-2,-1.065503061E-2,-2.317981720E-1
1.299996773E0,-3.729724884E-2,-1.538720727E-2,-2.317838669E-1
1.309996739E0,-3.240752220E-2,-1.004296541E-2,-2.533578873E-1
1.319996739E0,-3.004384041E-2,-7.521033287E-3,-2.150459290E-1
1.329996805E0,-3.953552246E-2,-5.233258009E-3,-2.389993668E-1
1.339996805E0,-5.190694332E-2,-9.997263551E-3,-2.245740891E-1
1.349996805E0,-4.916942120E-2,2.335384488E-3,-2.294206619E-1
1.359996805E0,-4.202961922E-2,1.209171116E-2,-2.365999222E-1
1.369996771E0,-4.650223255E-2,-2.103075385E-3,-2.127084732E-1
1.379996737E0,-3.412282467E-2,2.540186048E-3,-2.295274734E-1
1.389996770E0,-3.586566448E-2,-9.509474039E-3,-2.272310257E-1
1.399996770E0,-3.573513031E-2,-4.564493895E-3,-2.248592377E-1
1.409996803E0,-3.326463699E-2,-9.422346950E-3,-2.200803757E-1
1.419996769E0,-5.677449703E-2,-4.539728165E-3,-2.129650116E-1
1.429996769E0,-2.492880821E-2,-6.887823343E-3,-2.178640366E-1
1.439996802E0,-4.156696796E-2,9.695127606E-3,-1.987247467E-1
1.449996802E0,-4.586887360E-2,-7.496774197E-5,-2.418928146E-1
1.459996835E0,-3.095674515E-2,-2.713233232E-3,-2.132406235E-1
1.469996835E0,-4.732358456E-2,-1.470068097E-2,-2.276659012E-1
1.479996901E0,-1.867151260E-2,-2.512037754E-4,-2.156829834E-1
1.489996934E0,-4.002082348E-2,-2.865612507E-3,-2.085275650E-1
1.499996967E0,-5.168104172E-2,-9.970217943E-3,-2.085762024E-1
1.509996967E0,-3.249692917E-2,-5.088925362E-3,-2.109756470E-1
1.519996967E0,-3.209948540E-2,-2.411137521E-2,-2.110376358E-1
1.529996933E0,-2.236759663E-2,-2.259358764E-3,-2.110671997E-1
1.539996933E0,-3.657281399E-2,6.116330624E-4,-1.991271973E-1
1.549996966E0,-3.182280064E-2,-1.742094755E-3,-2.039098740E-1
1.559996966E0,-4.845285416E-2,5.440905690E-3,-2.111129761E-1
1.569996966E0,-4.065513611E-2,-1.875087619E-2,-2.112016678E-1
1.579996932E0,-3.578889370E-2,-2.349978685E-2,-2.112150192E-1
1.589996965E0,-3.536510468E-2,-1.380406320E-2,-2.088861465E-1
1.599996965E0,-4.689228535E-2,9.266138077E-4,-2.065649033E-1
1.609996965E0,-1.777660847E-2,-3.649830818E-3,-2.162036896E-1
1.619996931E0,-3.228831291E-2,3.593057394E-3,-1.970291138E-1
1.629996864E0,-2.264392376E-2,5.993619561E-3,-1.994333267E-1
1.639996897E0,-3.219556808E-2,-3.527849913E-3,-2.066202164E-1
1.649996897E0,-2.731525898E-2,-8.289501071E-3,-2.090301514E-1
1.659996897E0,-1.755630970E-2,8.447110653E-3,-2.066621780E-1
1.669996897E0,-3.465855122E-2,3.339558840E-3,-2.113933563E-1
1.679996897E0,-2.528858185E-2,-4.226267338E-3,-2.113561630E-1
1.689996863E0,-4.921138287E-2,-9.037256241E-3,-2.017822266E-1
1.699996896E0,-5.158019066E-2,-1.151412725E-2,-2.017841339E-1
1.709996896E0,-3.674352169E-2,1.248432696E-2,-2.042493820E-1
1.719996896E0,-2.421486378E-2,-1.978784800E-3,-2.282762527E-1
1.729996862E0,-3.621709347E-2,-2.120271325E-2,-2.091159821E-1
1.739996828E0,-4.310941696E-2,-1.694530249E-3,-2.091665268E-1
1.749996861E0,-4.302465916E-2,5.373328924E-3,-2.211484909E-1
1.759996861E0,-3.809809685E-2,-1.141223311E-2,-2.163801193E-1
1.769996861E0,-3.498053551E-2,5.544885993E-3,-1.997318268E-1
1.779996827E0,-3.532338142E-2,6.587952375E-4,-2.284097672E-1
1.789996827E0,-2.999007702E-2,-1.392647624E-2,-2.045459747E-1
1.799996827E0,-3.253769875E-2,3.548413515E-4,-2.117042542E-1
1.809996827E0,-4.604816437E-2,-2.089664340E-3,-2.142276764E-1
1.819996827E0,-4.128932953E-2,1.233154535E-2,-2.142238617E-1
1.829996827E0,-3.654575348E-2,-1.167947054E-2,-2.022447586E-1
1.839996793E0,-3.109955788E-2,2.513960004E-3,-2.191009521E-1
1.849996793E0,-3.569602966E-2,-1.193600893E-2,-2.119455338E-1
1.859996826E0,-3.106892109E-2,2.430737019E-3,-2.023439407E-1
1.869996826E0,-3.823184967E-2,-4.843637347E-3,-1.879796982E-1
1.879996826E0,-2.337336540E-2,-7.175624371E-3,-2.096042633E-1
1.889996792E0,-1.838815212E-2,-1.436312497E-2,-1.976623535E-1
1.899996825E0,-3.524005413E-2,1.350641251E-4,-2.120151520E-1
1.909996858E0,-4.959893227E-2,-9.394466877E-3,-2.144117355E-1
1.919996858E0,-3.737413883E-2,-2.160206437E-3,-2.072687149E-1
1.929996858E0,-2.776420116E-2,2.596586943E-3,-1.976957321E-1
1.939996824E0,-4.444849491E-2,-1.671670377E-2,-1.953096390E-1
1.949996857E0,-3.209030628E-2,1.235587895E-2,-2.097396851E-1
1.959996857E0,-2.973830700E-2,9.876772761E-3,-2.145204544E-1
1.969996857E0,-3.654229641E-2,-1.212063432E-2,-2.217521667E-1
1.979996857E0,-2.250170708E-2,-2.554059029E-4,-2.097320557E-1
1.989996857E0,-3.229773045E-2,-2.706915140E-3,-1.953315735E-1
1.999996823E0,-3.484332561E-2,-2.959519625E-4,-2.216453552E-1
2.009996856E0,-3.507983685E-2,-2.558231354E-3,-2.072467804E-1
2.019996889E0,-2.079331875E-2,-5.050227046E-3,-2.072334290E-1
2.029996889E0,-8.755326271E-3,-1.695901155E-2,-2.168216705E-1
2.039996889E0,-2.813708782E-2,2.555161715E-3,-1.976394653E-1
2.049996855E0,-2.422356606E-2,-1.191610098E-2,-2.022933960E-1
2.059996888E0,-2.665090561E-2,-1.664619148E-2,-2.358093262E-1
2.069996888E0,-1.053547859E-2,2.699539065E-3,-1.950130463E-1
2.079996888E0,-3.764402866E-2,2.927690744E-3,-2.332077026E-1
2.089996854E0,-3.336644173E-2,-4.235148430E-3,-2.067947388E-1
2.099996854E0,-2.604246140E-2,-6.718814373E-3,-2.139968872E-1
2.109996887E0,-1.439738274E-2,2.952307463E-3,-2.091617584E-1
2.119996887E0,-2.443313599E-2,-1.374846697E-2,-2.066984177E-1
2.129996887E0,-3.936028481E-2,-8.873775601E-3,-1.970376968E-1
2.139996887E0,-2.970361710E-2,-6.303191185E-3,-2.066287994E-1
2.149996853E0,-3.721117973E-2,-6.030142307E-3,-1.994009018E-1
2.159996819E0,-3.204798698E-2,8.066430688E-3,-2.186079025E-1
2.169996852E0,-3.920996189E-2,3.153681755E-3,-2.018499374E-1
2.179996852E0,-2.247035503E-2,-1.637607813E-3,-2.138185501E-1
2.189996852E0,-3.234803677E-2,5.165860057E-3,-2.065839767E-1
2.199996818E0,-2.035987377E-2,-1.166985929E-2,-2.089796066E-1
2.209996818E0,-3.750729561E-2,-2.128805220E-2,-2.208909988E-1
2.219996851E0,-3.986287117E-2,1.211673021E-2,-2.065296173E-1
2.229996851E0,-2.519476414E-2,-1.191975176E-2,-2.137565613E-1
2.239996851E0,-4.670846462E-2,-7.197767496E-3,-2.113666534E-1
2.249996817E0,-4.933941364E-2,2.075731754E-5,-1.969661713E-1
2.259996850E0,-4.692018032E-2,4.844740033E-3,-2.448549271E-1
2.269996883E0,-3.982579708E-2,9.611696005E-3,-2.113208771E-1
2.279996883E0,-3.457391262E-2,4.490658641E-3,-2.137804031E-1
2.289996883E0,-2.231907845E-2,-1.966513693E-2,-2.066364288E-1
2.299996883E0,-3.677904606E-2,-1.010699570E-2,-2.377481461E-1
2.309996849E0,-4.351472855E-2,-5.197092891E-3,-2.306356430E-1
2.319996849E0,-5.320012569E-2,-9.862378240E-3,-2.162551880E-1
2.329996882E0,-2.865374088E-2,-2.417530119E-2,-2.043752670E-1
2.339996882E0,-4.994535446E-2,1.202975214E-2,-2.139968872E-1
2.349996882E0,-1.890563965E-2,-7.229223847E-3,-2.139816284E-1
2.359996848E0,-1.906096935E-2,-1.193447411E-2,-2.307195663E-1
2.369996881E0,-2.636075020E-2,-7.189571857E-3,-2.091531754E-1
2.379996914E0,-4.096508026E-2,-1.725792885E-3,-2.115221024E-1
2.389996914E0,-4.308116436E-2,8.174166083E-3,-2.211456299E-1
2.399996880E0,-3.348422050E-2,8.353769779E-3,-2.283344269E-1
2.409996846E0,-4.038500786E-2,-8.909016848E-3,-2.092161179E-1
2.419996879E0,-2.097332478E-2,7.576897740E-3,-2.236146927E-1
2.429996879E0,-4.717028141E-2,-2.016857266E-3,-2.188472748E-1
2.439996879E0,-3.769564629E-2,-9.095847607E-3,-2.140455246E-1
2.449996879E0,-1.637613773E-2,-1.123264432E-2,-2.283802032E-1
2.459996879E0,-3.795874119E-2,-1.422837377E-3,-2.140130997E-1
2.469996845E0,-2.122652531E-2,-6.168052554E-3,-2.331638336E-1
2.479996878E0,-3.326034546E-2,1.030653715E-3,-2.092123032E-1
2.489996911E0,-4.257798195E-2,1.041695476E-3,-2.188291550E-1
2.499996911E0,-4.495239258E-2,6.009399891E-3,-2.188348770E-1
2.509996877E0,-4.252612591E-2,-3.747954965E-3,-2.164421082E-1
2.519996843E0,-2.078914642E-2,3.238439560E-3,-2.140731812E-1
2.529996876E0,-2.802395821E-2,5.246102810E-4,-2.188491821E-1
2.539996876E0,-3.297281265E-2,-1.120914519E-2,-2.236175537E-1
2.549996876E0,-4.007363319E-2,1.740342379E-2,-2.140502930E-1
2.559996842E0,-3.509593010E-2,-1.597389579E-3,-2.116870880E-1
2.569996842E0,-3.500616550E-2,-1.555740833E-3,-2.308559418E-1
2.579996875E0,-3.744387627E-2,-1.371175051E-2,-2.188749313E-1
2.589996875E0,-4.231631756E-2,-1.126508415E-2,-2.236518860E-1
2.599996875E0,-5.194330215E-2,1.017893851E-2,-2.164592743E-1
2.609996875E0,-2.464306355E-2,-9.601935744E-3,-2.046222687E-1
2.619996841E0,-3.690230846E-2,-6.883099675E-3,-1.997966766E-1
2.629996807E0,-3.406918049E-2,-4.892989993E-3,-2.118272781E-1
2.639996840E0,-1.734232903E-2,-5.097642541E-3,-1.902704239E-1
2.649996840E0,-3.671181202E-2,-9.769469500E-3,-2.333364487E-1
2.659996840E0,-4.090464115E-2,9.656414390E-3,-2.310371399E-1
2.669996806E0,-4.070997238E-2,-2.391308546E-3,-2.119112015E-1
2.679996806E0,-2.589142323E-2,-7.481664419E-3,-2.095813751E-1
2.689996839E0,-3.322851658E-2,9.168475866E-3,-2.143440247E-1
2.699996839E0,-4.536759853E-2,-1.494665444E-2,-2.071323395E-1
2.709996839E0,-2.823996544E-2,1.964509487E-3,-2.191619873E-1
2.719996805E0,-1.870548725E-2,-2.186724544E-2,-2.311296463E-1
2.729996838E0,-3.095221519E-2,-1.225654781E-2,-2.167224884E-1
2.739996871E0,-2.357721329E-2,4.840418696E-3,-2.239389420E-1
2.749996871E0,-3.337872028E-2,1.221087575E-2,-2.215137482E-1
2.759996871E0,-2.855575085E-2,1.229739189E-2,-2.119436264E-1
2.769996871E0,-2.399444580E-2,5.206808448E-3,-2.023344040E-1
2.779996837E0,-2.191221714E-2,2.262830734E-3,-2.190380096E-1
2.789996837E0,-3.883683681E-2,7.149621844E-3,-2.166204453E-1
2.799996870E0,-3.907382488E-2,-2.815097570E-3,-2.213668823E-1
2.809996870E0,-4.629254341E-2,-1.295903325E-2,-2.261409760E-1
2.819996870E0,-3.197395802E-2,-5.642861128E-3,-2.045869827E-1
2.829996836E0,-4.170191288E-2,-7.953733206E-3,-2.237195969E-1
2.839996869E0,-1.534187794E-2,4.138052464E-3,-2.117538452E-1
2.849996869E0,-2.759361267E-2,-1.248450577E-2,-2.260799408E-1
2.859996869E0,-2.997505665E-2,-5.325064063E-3,-2.332630157E-1
2.869996835E0,-2.276754379E-2,9.050071239E-3,-2.236909866E-1
2.879996801E0,-2.335882187E-2,-5.465134978E-3,-2.259941101E-1
2.889996834E0,-2.127146721E-2,1.414328814E-3,-2.235479355E-1
2.899996834E0,-2.649688721E-2,-2.033174038E-2,-2.067184448E-1
2.909996834E0,-4.860055447E-2,-9.229183197E-4,-2.186098099E-1
2.919996834E0,-5.337524414E-2,3.900945187E-3,-2.281894684E-1
2.929996834E0,-5.294775963E-2,-1.297736168E-2,-2.282533646E-1
2.939996800E0,-3.093576431E-2,-7.901936769E-4,-2.115659714E-1
2.949996833E0,-4.049658775E-2,-3.284722567E-3,-2.187500000E-1
2.959996833E0,-1.666033268E-2,-1.279693842E-2,-2.115516663E-1
2.969996833E0,-1.920402050E-2,1.374766231E-2,-2.330808640E-1
2.979996799E0,-3.121757507E-2,-3.133073449E-3,-2.234964371E-1
2.989996765E0,-3.660917282E-2,3.520533442E-3,-2.090311050E-1
2.999996798E0,-3.184771538E-2,-8.279889822E-3,-2.210006714E-1
3.009996798E0,-3.458821774E-2,-1.439377666E-3,-2.161540985E-1
3.019996798E0,-4.198503494E-2,-1.573309302E-2,-2.065458298E-1
3.029996764E0,-4.394590855E-2,-1.332893968E-3,-2.233715057E-1
3.039996764E0,-1.992011070E-2,-1.365229487E-3,-2.114124298E-1
3.049996797E0,-3.390562534E-2,-1.668155193E-3,-2.282247543E-1
3.059996797E0,-3.627729416E-2,1.042410731E-2,-2.234411240E-1
3.069996797E0,-4.082095623E-2,7.437899709E-3,-2.354402542E-1
3.079996797E0,-3.108263016E-2,-1.936554909E-4,-2.258806229E-1
3.089996763E0,-3.589963913E-2,-5.171224475E-3,-2.282667160E-1
3.099996763E0,-2.163696289E-2,-3.004372120E-4,-2.090988159E-1
3.109996796E0,-4.076921940E-2,-7.470875978E-3,-2.354393005E-1
3.119996796E0,-2.877962589E-2,-2.692595124E-3,-2.258653641E-1
3.129996796E0,-2.169573307E-2,-1.240065694E-2,-2.210588455E-1
3.139996762E0,-3.131389618E-2,4.325464368E-3,-2.090816498E-1
3.149996795E0,-3.595304489E-2,1.917377114E-3,-2.234687805E-1
3.159996828E0,-4.294908047E-2,-2.736732364E-3,-2.354707718E-1
3.169996828E0,-3.825259209E-2,-2.175359428E-2,-2.139110565E-1
3.179996828E0,-2.651369572E-2,-1.299828291E-4,-2.258481979E-1
3.189996794E0,-3.599214554E-2,-1.520067453E-4,-2.498044968E-1
3.199996827E0,-3.370928764E-2,-2.511367202E-3,-2.354240417E-1
3.209996827E0,-2.178108692E-2,4.926890135E-3,-2.138729095E-1
3.219996860E0,-3.379487991E-2,-2.278640866E-3,-2.042884827E-1
3.229996893E0,-4.310715199E-2,2.546831965E-3,-2.091188431E-1
3.239996893E0,-3.590822220E-2,-1.170048118E-2,-2.115154266E-1
3.249996859E0,-3.361618519E-2,-4.523023963E-3,-2.354440689E-1
3.259996892E0,-3.849673271E-2,-6.994500756E-3,-2.114858627E-1
3.269996925E0,-2.896523476E-2,7.482200861E-3,-2.306356430E-1
3.279996925E0,-2.421784401E-2,1.946794987E-2,-2.306299210E-1
3.289996925E0,-4.370129108E-2,-7.566452026E-3,-2.162017822E-1
3.299996891E0,-2.936983109E-2,-5.115553737E-3,-2.161979675E-1
3.309996924E0,-3.886723518E-2,6.848841906E-3,-2.305755615E-1
3.319996924E0,-4.376459122E-2,4.412814975E-3,-2.281637192E-1
3.329996924E0,-2.427256107E-2,6.387099624E-3,-2.306022644E-1
3.339996890E0,-3.879106045E-2,3.702208400E-3,-2.186031342E-1
3.349996890E0,-2.906334400E-2,-3.363013268E-3,-2.042617798E-1
3.359996923E0,-2.204859257E-2,-1.269033551E-2,-2.329721451E-1
3.369996923E0,-2.436888218E-2,-2.707752585E-2,-1.994628906E-1
3.379996923E0,-3.153324127E-2,-3.056466579E-3,-2.401695251E-1
3.389996923E0,-2.226555347E-2,-7.414504886E-3,-2.161874771E-1
3.399996923E0,-2.218532562E-2,-1.222451031E-2,-2.305650711E-1
3.409996889E0,-5.329239368E-2,-7.556006312E-3,-2.185945511E-1
3.419996922E0,-3.160071373E-2,4.429146647E-3,-2.425594330E-1
3.429996922E0,-1.971864700E-2,-7.653683424E-3,-2.233896255E-1
3.439996955E0,-2.976906300E-2,-1.234425604E-2,-2.352914810E-1
3.449996921E0,-3.271484375E-2,-4.826575518E-3,-2.304248810E-1
3.459996921E0,-2.783417702E-2,2.598449588E-3,-2.400188446E-1
3.469996954E0,-2.560055256E-2,-4.570916295E-3,-2.160530090E-1
3.479996954E0,-3.830838203E-2,7.624462247E-3,-2.183389664E-1
3.489996954E0,-3.349173069E-2,-1.163162291E-2,-2.231302261E-1
3.499996920E0,-3.850662708E-2,-4.343658686E-3,-2.135210037E-1
3.509996953E0,-4.105365276E-2,-1.156863570E-2,-2.374401093E-1
3.519996953E0,-4.587042332E-2,-2.109816670E-2,-2.326469421E-1
3.529996919E0,-4.089093208E-2,-1.337951422E-2,-2.087430954E-1
3.539996919E0,-4.759573936E-2,-1.265968382E-2,-2.447414398E-1
3.549996919E0,-3.345060349E-2,-5.423441529E-3,-2.111883163E-1
3.559996885E0,-3.113949299E-2,-3.080129623E-3,-2.375125885E-1
3.569996885E0,-4.994106293E-2,-1.941584051E-2,-2.256011963E-1
3.579996918E0,-3.746557236E-2,1.211479306E-2,-2.520208359E-1
3.589996918E0,-2.308571339E-2,7.381051779E-3,-2.185039520E-1
3.599996918E0,-1.581168175E-2,7.317513227E-3,-2.328815460E-1
3.609996884E0,-2.064764500E-2,7.364794612E-3,-2.185106277E-1
3.619996917E0,-4.514431953E-2,6.991356611E-3,-2.327861786E-1
3.629996950E0,-3.573048115E-2,-1.502008736E-2,-2.231769562E-1
3.639996950E0,-3.589653969E-2,-8.483052254E-3,-2.351131439E-1
3.649996916E0,-3.371727467E-2,7.968544960E-4,-2.111320496E-1
3.659996882E0,-4.816353321E-2,-9.310737252E-3,-2.422370911E-1
3.669996915E0,-3.799462318E-2,-4.824429750E-3,-2.231674194E-1
3.679996915E0,-2.845835686E-2,-7.264137268E-3,-2.231597900E-1
3.689996915E0,-3.341031075E-2,2.248793840E-3,-2.159509659E-1
3.699996881E0,-4.056739807E-2,-1.928651333E-2,-2.351102829E-1
3.709996881E0,-2.845704556E-2,-3.374689817E-2,-2.040033340E-1
3.719996847E0,-3.808319569E-2,-2.366794646E-2,-2.183713913E-1
3.729996880E0,-3.327262402E-2,8.964687586E-4,-2.471151352E-1
3.739996880E0,-3.320264816E-2,-8.083090186E-3,-2.207984924E-1
3.749996880E0,-2.383387089E-2,3.927469254E-3,-2.303457260E-1
3.759996846E0,-4.064965248E-2,1.532793045E-3,-2.255477905E-1
3.769996812E0,-4.313278198E-2,1.470729709E-3,-2.255334854E-1
3.779996878E0,-5.018031597E-2,1.393318176E-3,-2.255525589E-1
3.789996878E0,-2.621901035E-2,-1.061396301E-2,-2.423152924E-1
3.799996878E0,-3.111433983E-2,-1.523284614E-2,-2.231473923E-1
3.809996844E0,-2.408468723E-2,-8.007764816E-3,-2.111530304E-1
3.819996844E0,-3.400003910E-2,-4.913657904E-4,-2.111072540E-1
3.829996910E0,-1.494669914E-2,-2.954319119E-3,-2.158794403E-1
3.839996910E0,-3.414106369E-2,-1.020738482E-2,-2.302379608E-1
3.849996910E0,-3.856277466E-2,-7.761418819E-4,-2.326850891E-1
3.859996910E0,-4.326760769E-2,-7.901191711E-4,-2.207260132E-1
3.869996876E0,-5.283033848E-2,-7.979080081E-3,-2.303056717E-1
3.879996842E0,-2.860105038E-2,1.375971735E-2,-2.088041306E-1
3.889996875E0,-2.876567841E-2,-1.105800271E-3,-2.159528732E-1
3.899996875E0,-5.286049843E-2,3.614395857E-3,-2.255067825E-1
3.909996875E0,-2.877414227E-2,3.572598100E-3,-2.303161621E-1
3.919996841E0,-3.812623024E-2,6.840676069E-4,-2.183713913E-1
3.929996841E0,-2.841436863E-2,5.451872945E-3,-2.327556610E-1
3.939996874E0,-2.822172642E-2,-9.057313204E-3,-2.256011963E-1
3.949996874E0,-3.304255009E-2,-6.738215685E-3,-2.327766418E-1
3.959996874E0,-3.082585335E-2,-1.434668899E-2,-2.375326157E-1
3.969996840E0,-3.087496758E-2,-9.414821863E-3,-2.183723450E-1
3.979996873E0,-2.612328529E-2,1.688311994E-2,-2.087898254E-1
3.989996906E0,-1.868557930E-2,-1.188811660E-2,-2.351646423E-1
3.999996906E0,-3.302407265E-2,-4.717051983E-3,-2.064371109E-1
4.009996906E0,-3.539454937E-2,-4.562556744E-3,-2.279920578E-1
4.019996906E0,-5.446600914E-2,-4.571691155E-3,-2.327919006E-1
4.029996872E0,-3.756737709E-2,4.945382476E-3,-2.399950027E-1
4.039996872E0,-3.276729584E-2,1.591295004E-4,-2.376031876E-1
4.049996905E0,-3.542673588E-2,-1.650166512E-2,-2.231988907E-1
4.059996905E0,-4.008328915E-2,-4.691481590E-3,-2.351875305E-1
4.069996905E0,-4.263126850E-2,2.448409796E-4,-2.471380234E-1
4.079996838E0,-4.278588295E-2,7.432818413E-3,-2.159881592E-1
4.089996871E0,-3.092503548E-2,-4.541799426E-3,-2.135782242E-1
4.099996904E0,-4.070949554E-2,-6.870582700E-3,-2.111530304E-1
4.109996904E0,-3.340065479E-2,-1.180836558E-2,-2.494773865E-1
4.119996870E0,-4.295742512E-2,-6.994754076E-3,-2.327213287E-1
4.129996803E0,-4.058372974E-2,4.954069853E-3,-2.183532715E-1
4.139996836E0,-2.393567562E-2,-2.137182653E-2,-2.327013016E-1
4.149996836E0,-5.232381821E-2,1.260054111E-2,-2.351551056E-1
4.159996836E0,-9.318828583E-3,-8.763149381E-3,-2.255678177E-1
4.169996836E0,-2.820301056E-2,-6.440117955E-3,-2.303953171E-1
4.179996836E0,-2.597975731E-2,-6.507262588E-3,-2.064256668E-1
4.189996802E0,-2.882373333E-2,6.532073021E-4,-2.279052734E-1
4.199996835E0,-2.664625645E-2,-4.091829062E-3,-2.278738022E-1
4.209996835E0,-4.151380062E-2,1.510606706E-2,-2.373762131E-1
4.219996835E0,-3.413569927E-2,5.550503731E-3,-2.182512283E-1
4.229996801E0,-2.945852280E-2,-1.639366150E-3,-2.182340622E-1
4.239996767E0,-2.236437798E-2,-1.166512072E-2,-2.253971100E-1
4.249996800E0,-2.760410309E-2,6.593763828E-5,-2.277183533E-1
4.259996800E0,-3.507077694E-2,-9.655863047E-3,-2.300672531E-1
4.269996800E0,-3.503429890E-2,9.724363685E-3,-2.372598648E-1
4.279996766E0,-4.484593868E-2,-6.952777505E-3,-2.372255325E-1
4.289996766E0,-4.990935326E-2,2.686932683E-3,-2.419729233E-1
4.299996799E0,-2.366018295E-2,-7.062196732E-3,-2.060422897E-1
4.311081741E0,-3.095889091E-2,1.930445433E-4,-2.299699783E-1
4.321081741E0,-3.319489956E-2,-1.676718891E-2,-2.108354568E-1
4.331081741E0,-4.503464699E-2,7.167443633E-3,-2.180385590E-1
4.341081707E0,-3.310656548E-2,9.507909417E-3,-2.276077271E-1
4.351081707E0,-3.061556816E-2,-5.393594503E-3,-2.371912003E-1
4.361081740E0,-4.028415680E-2,1.871928573E-3,-2.323894501E-1
4.371081740E0,-2.080726624E-2,-2.930843830E-2,-2.061004639E-1
4.381081740E0,-4.025292397E-2,-1.204769313E-2,-2.515554428E-1
4.391081706E0,-3.538858891E-2,1.662579179E-2,-2.228345871E-1
4.401081706E0,-5.241835117E-2,-2.595379949E-3,-1.892728806E-1
4.411081772E0,-3.301489353E-2,-1.226969063E-2,-2.491655350E-1
4.421081772E0,-2.330183983E-2,-5.264133215E-3,-2.228469849E-1
4.431081772E0,-4.215192795E-2,2.056270838E-3,-2.420501709E-1
4.441081738E0,-3.014504910E-2,-5.208969116E-3,-2.348709106E-1
4.451081771E0,-3.743338585E-2,-1.981060207E-2,-2.300624847E-1
4.461081771E0,-2.801012993E-2,-1.742503047E-2,-2.300386429E-1
4.471081771E0,-2.344691753E-2,-3.097563982E-3,-2.276096344E-1
4.481081771E0,-3.790462017E-2,-2.974554896E-3,-2.275972366E-1
4.491081771E0,-4.011309147E-2,-1.030467451E-2,-2.204399109E-1
4.501081737E0,-3.319859505E-2,-5.507841706E-3,-2.203998566E-1
4.511081770E0,-4.517710209E-2,-1.909583807E-4,-2.299852371E-1
4.521081803E0,-5.214333534E-2,7.452249527E-3,-2.324190140E-1
4.531081803E0,-3.806114197E-2,-2.090215683E-3,-2.204055786E-1
4.541081803E0,-4.007744789E-2,-4.526242614E-3,-2.300395966E-1
4.551081769E0,-4.906606674E-2,-2.214968204E-3,-2.277326584E-1
4.561081802E0,-4.419410229E-2,2.636149526E-3,-2.421131134E-1
4.571081802E0,-4.142510891E-2,-4.429072142E-3,-2.158336639E-1
4.581081802E0,-3.614258766E-2,2.584934235E-3,-2.350606918E-1
4.591081768E0,-3.545570374E-2,7.119074464E-3,-2.399482727E-1
4.601081768E0,-1.804232597E-2,-5.704611540E-4,-2.328557968E-1
4.611081801E0,-3.964173794E-2,1.817569137E-3,-2.232713699E-1
4.621081801E0,-2.298319340E-2,-3.229156137E-3,-2.352228165E-1
4.631081801E0,-3.013586998E-2,-1.272280514E-2,-2.232580185E-1
4.641081801E0,-4.233193398E-2,-1.511558890E-2,-2.375898361E-1
4.651081767E0,-3.763997555E-2,4.275381565E-3,-2.184247971E-1
4.661081733E0,-3.808379173E-2,4.106521606E-3,-2.279310226E-1
4.671081766E0,-4.021978378E-2,-5.553543568E-3,-2.399406433E-1
4.681081766E0,-5.469977856E-2,-1.320201159E-2,-2.518863678E-1
4.691081799E0,-4.037916660E-2,-8.226931095E-3,-2.375183105E-1
4.701081765E0,-2.155721188E-2,-2.022518218E-2,-2.350730896E-1
4.711081731E0,-3.105854988E-2,1.999422908E-3,-2.374897003E-1
4.721081764E0,-2.612996101E-2,-1.706656814E-2,-2.159633636E-1
4.731081764E0,-4.993295670E-2,1.389618218E-2,-2.495021820E-1
4.741081764E0,-3.076314926E-2,-3.697127104E-4,-2.303514481E-1
4.751081730E0,-2.613294125E-2,2.127185464E-3,-2.327241898E-1
4.761081763E0,-5.293071270E-2,-5.367115140E-3,-2.230720520E-1
4.771081796E0,-3.400135040E-2,-1.725229621E-2,-2.278280258E-1
4.781081796E0,-3.146576881E-2,-2.899125218E-3,-2.326374054E-1
4.791081796E0,-3.885614872E-2,1.639033854E-2,-2.182426453E-1
4.801081796E0,-4.128503799E-2,-2.967938781E-3,-2.397823334E-1
4.811081762E0,-4.366350174E-2,-1.005764306E-2,-2.206315994E-1
4.821081762E0,-4.562413692E-2,-1.481050253E-2,-2.398529053E-1
4.831081795E0,-3.843295574E-2,2.051562071E-3,-2.470388412E-1
4.841081795E0,-5.248796940E-2,-1.224434376E-2,-2.135677338E-1
4.851081795E0,-4.306006432E-2,-1.207719743E-2,-2.470674515E-1
4.861081761E0,-3.766512871E-2,-9.506881237E-3,-2.232189178E-1
4.871081794E0,-4.185819626E-2,7.419407368E-3,-2.352838516E-1
4.881081827E0,-2.973401546E-2,-1.638834178E-2,-2.185487747E-1
4.891081827E0,-3.924274445E-2,9.815394878E-3,-2.233457565E-1
4.901081793E0,-2.491319180E-2,-9.320750833E-3,-2.281284332E-1
4.911081759E0,-2.729320526E-2,3.482997417E-4,-2.401037216E-1
4.921081792E0,-3.416323662E-2,-2.152830362E-3,-2.281770706E-1
4.931081792E0,-5.089831352E-2,-9.400755167E-3,-2.329692841E-1
4.941081792E0,-4.547047615E-2,-4.492014647E-3,-2.450389862E-1
4.951081792E0,-3.589117527E-2,-9.164497256E-3,-2.187042236E-1
4.961081792E0,-4.077005386E-2,-1.158960164E-2,-2.282667160E-1
4.971081758E0,-3.848516941E-2,2.749413252E-3,-2.258558273E-1
4.981081791E0,-2.446413040E-2,5.694329739E-4,-2.425680161E-1
4.991081791E0,-3.904139996E-2,-1.790285110E-3,-2.161989212E-1
5.001081791E0,-5.105042458E-2,-4.279866815E-3,-2.233743668E-1
5.011081757E0,-2.445900440E-2,3.222763538E-3,-2.377843857E-1
5.021081723E0,-5.300033092E-2,-6.341546774E-3,-2.354183197E-1
5.031081756E0,-3.097724915E-2,3.078788519E-3,-2.354869843E-1
5.041081756E0,-2.882349491E-2,7.427781820E-4,-2.426357269E-1
5.051081756E0,-3.143095970E-2,5.570933223E-3,-2.090845108E-1
5.061081722E0,-4.583489895E-2,3.245010972E-3,-2.234449387E-1
5.071081722E0,-4.096210003E-2,3.211438656E-3,-2.258520126E-1
5.081081755E0,-3.335344791E-2,4.989594221E-3,-2.354831696E-1
5.091081755E0,-3.562211990E-2,-2.296954393E-3,-2.402877808E-1
5.101081755E0,-2.872514725E-2,-1.436586678E-2,-2.378501892E-1
5.111081721E0,-2.864360809E-2,7.256329060E-3,-2.354688644E-1
5.121081687E0,-3.359663486E-2,1.222461462E-2,-2.258701324E-1
5.131081653E0,-4.108667374E-2,-7.462993264E-3,-2.282085419E-1
5.141081686E0,-3.646159172E-2,7.024019957E-3,-2.401571274E-1
5.151081686E0,-4.343926907E-2,4.535377026E-3,-2.234268188E-1
5.161081686E0,-3.848683834E-2,-7.458925247E-4,-2.378091812E-1
5.171081652E0,-5.516350269E-2,-3.795266151E-3,-2.402048111E-1
5.181081652E0,-3.546166420E-2,-1.389148831E-2,-2.402791977E-1
5.191081685E0,-3.050220013E-2,-2.035200596E-3,-2.403030396E-1
5.201081685E0,-2.355051041E-2,3.894418478E-4,-2.187204361E-1
5.211081685E0,-3.304529190E-2,-4.017166793E-2,-2.211284637E-1
5.221081651E0,-2.853238583E-2,-1.571521163E-3,-2.665824890E-1
5.231081684E0,-3.307569027E-2,2.019457519E-2,-2.474699020E-1
5.241081717E0,-4.689538479E-2,5.454748869E-3,-2.116317749E-1
5.251081717E0,-6.589293480E-3,-1.880533993E-2,-2.331151962E-1
5.261081717E0,-4.085338116E-2,-1.862213016E-3,-2.521600723E-1
5.271081717E0,-4.580366611E-2,2.231249213E-2,-2.018604279E-1
5.281081683E0,-4.118275642E-2,8.041843772E-3,-2.449331284E-1
5.291081683E0,1.721620560E-3,-1.428179443E-2,-2.281303406E-1
5.301081716E0,-2.739131451E-2,-2.395310998E-2,-2.208890915E-1
5.311081716E0,-2.504456043E-2,9.654685855E-3,-2.352485657E-1
5.321081716E0,-3.484117985E-2,2.385051548E-2,-2.304239273E-1
5.331081682E0,-3.715515137E-2,-7.735714316E-3,-2.256402969E-1
5.341081715E0,-3.768837452E-2,-2.959850430E-2,-2.542858124E-1
5.351081715E0,-2.652394772E-2,-4.083663225E-4,-2.158622742E-1
5.361081715E0,-4.549193382E-2,9.392499924E-3,-2.158946991E-1
5.371081681E0,-3.574001789E-2,-5.479082465E-3,-2.494325638E-1
5.381081647E0,-3.337335587E-2,-1.545651257E-2,-2.206897736E-1
5.391081680E0,-4.083979130E-2,1.112967730E-3,-2.254323959E-1
5.401081680E0,-3.608655930E-2,1.082481444E-2,-2.493724823E-1
5.411081713E0,-2.889347076E-2,6.127133965E-3,-2.230377197E-1
5.421081713E0,-2.870643139E-2,-6.024628878E-3,-2.422180176E-1
5.431081713E0,-9.768128395E-3,-3.650888801E-3,-2.326068878E-1
5.441081679E0,-9.872555733E-3,-1.072859764E-2,-2.278041840E-1
5.451081712E0,-4.419744015E-2,-8.407756686E-3,-2.396526337E-1
5.461081712E0,-4.908978939E-2,-3.611102700E-3,-2.276659012E-1
5.471081712E0,-3.697478771E-2,9.574443102E-4,-2.252902985E-1
5.481081678E0,-3.286910057E-2,-1.654818654E-3,-2.275762558E-1
5.491081644E0,-4.255759716E-2,-1.360470057E-2,-2.443208694E-1
5.501081677E0,-2.827811241E-2,5.698278546E-3,-2.155780792E-1
5.511081677E0,-2.126085758E-2,-6.303846836E-3,-2.299184799E-1
5.521081677E0,-1.885712147E-2,-1.582746208E-2,-2.035837173E-1
5.531081643E0,-2.899312973E-2,-1.556771994E-2,-2.370243073E-1
5.541081643E0,-4.133474827E-2,-1.271940768E-2,-2.226095200E-1
5.551081676E0,-4.850709438E-2,-7.853806019E-4,-2.202148438E-1
5.561081709E0,-4.858064651E-2,4.310265183E-3,-2.345752716E-1
5.571081709E0,-3.192925453E-2,-3.146186471E-3,-2.393426895E-1
5.581081709E0,-3.927683830E-2,-1.998746395E-2,-2.153739929E-1
5.591081675E0,-2.690315247E-2,4.644423723E-3,-2.298126221E-1
5.601081675E0,-3.424298763E-2,2.321094275E-3,-2.226066589E-1
5.611081708E0,-2.943289280E-2,-1.215495169E-2,-2.154254913E-1
5.621081708E0,-3.437769413E-2,-5.104854703E-3,-2.249774933E-1
5.631081708E0,-3.928101063E-2,4.639014602E-3,-2.177791595E-1
5.641081708E0,-5.596125126E-2,-7.375717163E-3,-2.321557999E-1
5.651081741E0,-4.649066925E-2,-4.907637835E-3,-2.153816223E-1
5.661081774E0,-3.946316242E-2,-1.461815834E-2,-2.273263931E-1
5.671081774E0,-4.644060135E-2,1.709163189E-5,-2.297573090E-1
5.681081774E0,-1.951050758E-2,-1.146279275E-2,-2.298555374E-1
5.691081740E0,-3.821003437E-2,5.718231201E-3,-2.155656815E-1
5.701081806E0,-3.830289841E-2,-2.067683637E-2,-2.227325439E-1
5.711081806E0,-4.995870590E-2,1.183882356E-3,-2.227869034E-1
5.721081806E0,-2.787280083E-2,-5.863696337E-3,-2.348413467E-1
5.731081806E0,-4.007399082E-2,-5.765467882E-3,-2.395973206E-1
5.741081806E0,-3.514814377E-2,-1.763260365E-2,-2.444076538E-1
5.751081772E0,-2.567470074E-2,6.244152784E-3,-2.467851639E-1
5.761081805E0,-1.374757290E-2,-8.670985699E-4,-2.348079681E-1
5.771081838E0,-2.809643745E-2,1.592892408E-2,-2.300233841E-1
5.781081838E0,-2.856266499E-2,1.268625259E-3,-2.371311188E-1
5.791081838E0,-3.346347809E-2,-5.969569087E-3,-2.251415253E-1
5.801081804E0,-4.319906235E-2,-2.515335381E-2,-2.131452560E-1
5.811081837E0,-3.133952618E-2,5.881085992E-3,-2.346754074E-1
5.821081870E0,-5.801093578E-2,-8.316725492E-3,-2.226552963E-1
5.831081870E0,-3.392159939E-2,1.095481217E-2,-2.298631668E-1
5.841081836E0,-3.402411938E-2,-3.414630890E-3,-2.418184280E-1
5.851081836E0,-4.113876820E-2,-5.821615458E-3,-2.226743698E-1
5.861081836E0,-3.878569603E-2,-1.109495759E-3,-2.298498154E-1
5.871081836E0,-5.277705193E-2,3.663346171E-3,-2.322998047E-1
5.881081836E0,-4.073798656E-2,-3.536760807E-3,-2.323102951E-1
5.891081836E0,-3.802490234E-2,-1.093694568E-2,-2.275667191E-1
5.901081802E0,-4.536998272E-2,3.651320934E-3,-2.203626633E-1
5.911081768E0,-4.526519775E-2,-1.262933016E-3,-2.323474884E-1
5.921081801E0,-3.512775898E-2,-1.101709902E-2,-2.252473831E-1
5.931081801E0,-1.290440559E-2,-3.667250276E-3,-2.445058823E-1
5.941081767E0,-3.462684155E-2,-1.095247269E-2,-2.205352783E-1
5.951081733E0,-4.682350159E-2,-1.107259095E-2,-2.348651886E-1
5.961081733E0,-4.692435265E-2,5.913123488E-3,-2.372484207E-1
5.971081766E0,-2.996242046E-2,-8.570000529E-3,-2.372770309E-1
5.981081766E0,-3.426766396E-2,8.422300220E-3,-2.373533249E-1
5.991081766E0,-3.208434582E-2,-8.240044117E-3,-2.181692123E-1
6.001081699E0,-3.236150742E-2,6.358131766E-3,-2.348909378E-1
6.011081732E0,-3.246605396E-2,-3.663927317E-3,-2.348680496E-1
6.021081765E0,-3.010833263E-2,-8.477434516E-3,-2.276792526E-1
6.031081765E0,-3.279483318E-2,-3.483861685E-3,-2.300329208E-1
6.041081765E0,-3.510355949E-2,-3.410324454E-3,-2.324409485E-1
6.051081765E0,-3.257346153E-2,-3.301054239E-3,-2.324628830E-1
6.061081731E0,-5.667853355E-2,-3.181523085E-2,-2.204704285E-1
6.071081731E0,-3.266823292E-2,-6.682574749E-4,-2.132987976E-1
6.081081764E0,-4.663014412E-2,-2.769604325E-3,-2.181539536E-1
6.091081764E0,-2.997541428E-2,2.002283931E-3,-2.229251862E-1
6.101081730E0,-2.762627602E-2,2.026468515E-3,-2.277078629E-1
6.111081696E0,-1.987659931E-2,6.686776876E-3,-2.253971100E-1
6.121081696E0,-4.386436939E-2,-2.832159400E-3,-2.229967117E-1
6.131081729E0,-3.864026070E-2,-1.489558816E-2,-2.182731628E-1
6.141081729E0,-2.432036400E-2,-7.673859596E-3,-2.374210358E-1
6.151081695E0,-3.659427166E-2,-2.268856764E-2,-2.397584915E-1
6.161081661E0,-4.383385181E-2,-2.502286434E-2,-2.373571396E-1
6.171081694E0,-3.896152973E-2,1.389846206E-3,-2.445535660E-1
6.181081694E0,-3.889632225E-2,-1.041474938E-2,-2.445659637E-1
6.191081694E0,-2.485275269E-2,1.403003931E-3,-2.253608704E-1
6.201081694E0,-3.461194038E-2,-8.255645633E-3,-2.301206589E-1
6.211081694E0,-2.992165089E-2,1.290991902E-3,-2.420768738E-1
6.221081660E0,-3.544139862E-2,-3.572627902E-3,-2.323856354E-1
6.231081693E0,-3.560066223E-2,-3.487735987E-3,-2.251815796E-1
6.241081726E0,-4.797244072E-2,-3.577277064E-3,-2.179365158E-1
6.251081726E0,-4.060554504E-2,-1.334980130E-3,-2.299337387E-1
6.261081692E0,-4.256546497E-2,8.160397410E-3,-2.204198837E-1
6.271081658E0,-3.269314766E-2,8.091494441E-3,-2.420129776E-1
6.281081724E0,-2.322316170E-2,5.722612143E-3,-2.348136902E-1
6.291081724E0,-3.047776222E-2,2.874240279E-3,-2.252187729E-1
6.301081724E0,-4.015648365E-2,-1.852992177E-2,-2.347822189E-1
6.311081690E0,-3.543257713E-2,2.744033933E-3,-2.084312439E-1
6.321081690E0,-2.833652496E-2,-2.212300897E-3,-2.275686264E-1
6.331081723E0,-3.089034557E-2,1.219627261E-2,-2.299404144E-1
6.341081723E0,-2.865540981E-2,-2.054303885E-3,-2.371006012E-1
6.351081723E0,-2.409136295E-2,1.491324604E-2,-2.274932861E-1
6.361081723E0,-3.633427620E-2,-7.051706314E-3,-2.226562500E-1
6.371081689E0,-2.679669857E-2,-6.901413202E-3,-2.346239090E-1
6.381081655E0,-2.724468708E-2,-2.327159047E-3,-2.273693085E-1
6.391081688E0,-3.214919567E-2,-3.117080033E-2,-2.225618362E-1
6.401081721E0,-5.864250660E-2,-4.988640547E-3,-2.225360870E-1
6.411081721E0,-3.725576401E-2,-2.464413643E-3,-2.105417252E-1
6.421081687E0,-4.157721996E-2,-2.102091908E-3,-2.321672440E-1
6.431081687E0,-3.450238705E-2,-9.256809950E-3,-2.393341064E-1
6.441081720E0,-2.955985069E-2,6.873309612E-4,-2.202091217E-1
6.451081720E0,-3.401660919E-2,-1.108263433E-2,-2.370233536E-1
6.461081720E0,-3.191721439E-2,-1.082837582E-2,-1.962795258E-1
6.471081686E0,-3.649652004E-2,-6.151050329E-4,-2.154760361E-1
6.481081719E0,-4.383957386E-2,1.707568765E-3,-2.322101593E-1
6.491081752E0,-3.137707710E-2,-5.408033729E-3,-2.251043320E-1
6.501081752E0,-4.332840443E-2,4.328057170E-3,-2.203197479E-1
6.511081718E0,-3.109490871E-2,4.124894738E-3,-2.275400162E-1
6.521081718E0,-4.065060616E-2,-2.987787127E-3,-2.490930557E-1
6.531081684E0,-3.549957275E-2,-1.535695791E-2,-2.228040695E-1
6.541081684E0,-3.811407089E-2,8.586987853E-3,-2.347421646E-1
6.551081717E0,-4.300832748E-2,6.092831492E-3,-2.155704498E-1
6.561081717E0,-4.491961002E-2,-1.812057197E-2,-2.347936630E-1
6.571081717E0,-4.986071587E-2,-9.527355433E-4,-2.180166245E-1
6.581081650E0,-3.274369240E-2,-1.542180777E-2,-2.300405502E-1
6.591081683E0,-5.665504932E-2,3.746315837E-3,-2.180747986E-1
6.601081716E0,-2.966117859E-2,-3.358229995E-3,-2.277517319E-1
6.611081716E0,-3.169369698E-2,3.879025578E-3,-2.254142761E-1
6.621081682E0,-2.656567097E-2,-3.416016698E-3,-2.278575897E-1
6.631081648E0,-4.096353054E-2,1.470401883E-3,-2.278547287E-1
6.641081681E0,-3.359615803E-2,-7.941871881E-4,-2.518272400E-1
6.651081681E0,-3.810977936E-2,1.295520365E-2,-2.135505676E-1
6.661081681E0,-3.090512753E-2,-4.101082683E-3,-2.494621277E-1
6.671081681E0,-3.818094730E-2,-6.411030889E-3,-2.255077362E-1
6.681081714E0,-3.588438034E-2,-8.838728070E-3,-2.302808762E-1
6.691081680E0,-3.354477882E-2,3.402829170E-3,-2.350645065E-1
6.701081713E0,-2.437078953E-2,-1.540915668E-2,-2.374038696E-1
6.711081713E0,-2.741062641E-2,1.276880503E-3,-2.157564163E-1
6.721081713E0,-3.697788715E-2,-1.299263537E-2,-2.277307510E-1
6.731081679E0,-3.486537933E-2,-1.056483388E-2,-2.324762344E-1
6.741081645E0,-3.754150867E-2,4.046604037E-3,-2.468042374E-1
6.751081678E0,-2.076768875E-2,-3.165289760E-3,-2.037086487E-1
6.761081678E0,-3.499710560E-2,-5.532637239E-3,-2.252788544E-1
6.771081678E0,-3.562903404E-2,-7.280558348E-4,-2.203941345E-1
6.781081644E0,-2.866172791E-2,-1.497142017E-2,-2.275466919E-1
6.791081644E0,-3.361856937E-2,-3.739893436E-4,-2.179479599E-1
6.801081677E0,-3.127050400E-2,4.342600703E-3,-2.155447006E-1
6.811081710E0,-3.609681129E-2,1.629699767E-2,-2.394819260E-1
6.821081710E0,-3.590536118E-2,-3.338754177E-4,-2.203588486E-1
6.831081710E0,-4.540097713E-2,9.325206280E-3,-2.179784775E-1
6.841081676E0,-3.089547157E-2,6.495431066E-3,-2.227811813E-1
6.851081676E0,-3.328216076E-2,6.021931767E-3,-2.586889267E-1
6.861081709E0,-4.534161091E-2,1.010233164E-2,-2.179613113E-1
6.871081709E0,-4.996502399E-2,-2.602577209E-3,-2.347335815E-1
6.881081709E0,-4.481351376E-2,1.140841842E-2,-2.299938202E-1
6.891081675E0,-3.498876095E-2,-1.051115990E-2,-2.348136902E-1
6.901081675E0,-5.154657364E-2,-1.403987408E-3,-2.468080521E-1
6.911081708E0,-1.334297657E-2,-1.347951591E-2,-2.372131348E-1
6.921081708E0,-1.798069477E-2,-3.820434213E-3,-2.396306992E-1
6.931081708E0,-2.521860600E-2,-1.188814640E-3,-2.468099594E-1
6.941081674E0,-2.514433861E-2,-1.317548752E-2,-2.276668549E-1
6.951081707E0,-4.206812382E-2,6.078585982E-3,-2.372217178E-1
6.961081707E0,-3.749334812E-2,-1.055285335E-3,-2.276115417E-1
6.971081707E0,-4.220569134E-2,-5.570888519E-3,-2.180509567E-1
6.981081673E0,-3.050982952E-2,1.084585488E-2,-2.132148743E-1
6.991081673E0,-3.067493439E-2,-3.951191902E-3,-2.395191193E-1
7.001081639E0,-4.747927189E-2,-1.096431911E-2,-2.395153046E-1
7.011081672E0,-4.728174210E-2,8.105382323E-3,-2.371501923E-1
7.021081705E0,-2.546453476E-2,2.933129668E-3,-2.395782471E-1
7.031081705E0,-3.036260605E-2,-6.572142243E-3,-2.419576645E-1
7.041081705E0,-3.506374359E-2,-1.392984390E-2,-2.252082825E-1
7.051081671E0,-3.731799126E-2,5.364000797E-3,-2.252321243E-1
7.061081704E0,-4.969084263E-2,3.151744604E-3,-2.155961990E-1
7.071081737E0,-1.585328579E-2,5.857124925E-3,-2.084674835E-1
7.081081737E0,-4.222202301E-2,5.286231637E-3,-2.276067734E-1
7.091081703E0,-3.512322903E-2,2.793669701E-4,-2.395610809E-1
7.101081703E0,-4.469573498E-2,-1.645261049E-2,-2.443513870E-1
7.111081736E0,-4.724276066E-2,-2.048939466E-3,-2.515115738E-1
7.121081736E0,-3.478002548E-2,-1.407235861E-2,-2.132778168E-1
7.131081736E0,-5.367171764E-2,-2.012252808E-3,-2.372617722E-1
7.141081736E0,-3.660368919E-2,-1.159138978E-2,-2.205476761E-1
7.151081736E0,-2.929270267E-2,-1.641154289E-2,-2.205667496E-1
7.161081702E0,-3.161334991E-2,-1.881751418E-2,-2.540979385E-1
7.171081735E0,-3.379011154E-2,-1.393944025E-3,-2.349872589E-1
7.181081735E0,-3.633856773E-2,-1.088935137E-2,-2.301769257E-1
7.191081735E0,-2.412700653E-2,-6.141602993E-3,-2.230300903E-1
7.201081701E0,-3.601932526E-2,-2.756267786E-2,-2.398042679E-1
7.211081701E0,-3.613209724E-2,-7.458642125E-3,-2.421979904E-1
7.221081734E0,-2.910351753E-2,-9.844914079E-3,-2.182312012E-1
7.231081734E0,-3.621900082E-2,2.320080996E-3,-2.326097488E-1
7.241081734E0,-2.684164047E-2,5.053341389E-3,-2.349796295E-1
7.251081700E0,-2.671086788E-2,1.207549870E-2,-2.349967957E-1
7.261081733E0,-4.369068146E-2,2.396671474E-2,-2.493276596E-1
7.271081766E0,-5.103480816E-2,7.151037455E-3,-2.373323441E-1
7.281081799E0,-2.497553825E-2,-2.858087420E-3,-2.444648743E-1
7.291081799E0,-2.994251251E-2,2.108946443E-3,-2.420463562E-1
7.301081799E0,-4.219198227E-2,-1.501731575E-2,-2.396039963E-1
7.311081765E0,-3.294134140E-2,-1.292020082E-2,-2.323665619E-1
7.321081765E0,-3.531622887E-2,-1.047554612E-2,-2.156105042E-1
7.331081798E0,-3.060567379E-2,-7.700666785E-3,-2.539138794E-1
7.341081798E0,-4.502379894E-2,4.366591573E-3,-2.323589325E-1
7.351081798E0,-2.573227882E-2,-1.005768776E-2,-2.299842834E-1
7.361081764E0,-4.997801781E-2,-2.559006214E-3,-2.490978241E-1
7.371081764E0,-4.050111771E-2,-1.911586523E-2,-2.275371552E-1
7.381081797E0,-2.617835999E-2,-4.670292139E-3,-2.347154617E-1
7.391081797E0,-1.426005363E-2,-6.933599710E-3,-2.394981384E-1
7.401081763E0,-3.093075752E-2,-2.125532925E-2,-2.059917450E-1
7.411081729E0,-1.889300346E-2,5.252584815E-3,-2.419195175E-1
7.421081762E0,-3.832292557E-2,2.842128277E-3,-2.131462097E-1
7.431081762E0,-4.082453251E-2,-1.132839918E-2,-2.586240768E-1
7.441081762E0,-4.321312904E-2,-6.383091211E-3,-2.251081467E-1
7.451081728E0,-5.043268204E-2,-1.105670631E-2,-2.251043320E-1
7.461081728E0,-3.833222389E-2,-8.562952280E-3,-2.466745377E-1
7.471081694E0,-3.591918945E-2,1.067675650E-2,-2.323122025E-1
7.481081727E0,-3.369247913E-2,3.605738282E-3,-2.298946381E-1
7.491081760E0,-3.618836403E-2,-5.954638124E-3,-2.370634079E-1
7.501081760E0,-2.904355526E-2,1.071694493E-2,-2.346611023E-1
7.511081726E0,-5.333268642E-2,5.926251411E-3,-2.417917252E-1
7.521081692E0,-3.890240192E-2,-3.928273916E-3,-2.274303436E-1
7.531081725E0,-6.527113914E-2,-1.591788232E-2,-2.489738464E-1
7.541081725E0,-4.058218002E-2,-8.841663599E-3,-2.107772827E-1
7.551081725E0,-4.939484596E-2,5.595117807E-3,-2.300481796E-1
7.561081691E0,-3.425788879E-2,-4.028528929E-3,-2.277698517E-1
7.571081691E0,-3.430581093E-2,-6.210252643E-3,-2.421331406E-1
7.581081691E0,-3.370165825E-2,-1.104862988E-2,-2.374353409E-1
7.591081691E0,-3.824079037E-2,-1.312732697E-3,-2.398681641E-1
7.601081691E0,-2.385759354E-2,8.313536644E-3,-2.135353088E-1
7.611081691E0,-3.826689720E-2,1.218691468E-3,-2.494440079E-1
7.621081657E0,-3.364050388E-2,-1.771827042E-2,-2.254810333E-1
7.631081623E0,-3.596043587E-2,-5.586236715E-3,-2.302837372E-1
7.641081656E0,-4.810607433E-2,-5.302965641E-3,-2.350492477E-1
7.651081656E0,-4.562389851E-2,6.751120090E-3,-2.350645065E-1
7.661081656E0,-4.524266720E-2,4.195153713E-3,-2.518796921E-1
7.671081622E0,-2.372598648E-2,-6.146579981E-4,-2.303256989E-1
7.681081622E0,-3.102338314E-2,-5.308985710E-3,-2.255220413E-1
7.691081655E0,-3.106200695E-2,-6.007403135E-4,-2.470636368E-1
7.701081655E0,-1.668560505E-2,-1.019233465E-2,-2.374877930E-1
7.711081655E0,-2.881407738E-2,1.863092184E-3,-2.638015747E-1
7.721081621E0,-3.591728210E-2,-1.006016135E-2,-2.350835800E-1
7.731081654E0,-3.647232056E-2,-4.397481680E-4,-2.326049805E-1
7.741081687E0,-3.406286240E-2,-5.128845572E-3,-2.565517426E-1
7.751081687E0,-4.374778271E-2,2.006262541E-3,-2.206201553E-1
7.761081687E0,-2.463340759E-2,-5.017861724E-3,-2.421665192E-1
7.771081687E0,-3.460693359E-2,2.091497183E-3,-2.349224091E-1
7.781081653E0,-2.978670597E-2,2.243399620E-3,-2.253532410E-1
7.791081653E0,-2.539503574E-2,-2.833321691E-3,-2.348651886E-1
7.801081686E0,-2.317011356E-2,-2.683579922E-3,-2.252645493E-1
7.811081686E0,-4.280769825E-2,-2.969011664E-3,-2.299747467E-1
7.821081686E0,-4.058229923E-2,4.372805357E-3,-2.060089111E-1
7.831081652E0,-4.788136482E-2,-3.248453140E-4,-2.227525711E-1
7.841081685E0,-3.804886341E-2,-2.935290337E-3,-2.227878571E-1
7.851081685E0,-2.858352661E-2,1.848146319E-3,-2.347421646E-1
7.861081685E0,-3.096222878E-2,-3.291442990E-3,-2.275562286E-1
7.871081651E0,-5.008971691E-2,8.749514818E-3,-2.467155457E-1
7.881081617E0,-3.110539913E-2,-1.503244042E-2,-2.490863800E-1
7.891081650E0,-5.281746387E-2,6.707206368E-3,-2.394876480E-1
7.901081650E0,-4.299879074E-2,-5.628213286E-3,-2.347307205E-1
7.911081650E0,-2.404677868E-2,1.125521958E-2,-2.490673065E-1
7.921081650E0,-4.336917400E-2,1.799777150E-3,-2.562265396E-1
7.931081650E0,-3.389251232E-2,-5.237713456E-3,-2.514257431E-1
7.941081616E0,-4.364502430E-2,-9.949177504E-3,-2.274570465E-1
7.951081649E0,-3.381478786E-2,-2.733483911E-3,-2.346792221E-1
7.961081649E0,-3.881728649E-2,9.393483400E-3,-2.418327332E-1
7.971081649E0,-3.868210316E-2,-1.223027706E-2,-2.370634079E-1
7.981081615E0,-4.422318935E-2,-2.946540713E-3,-2.369432449E-1
7.991081581E0,-3.948414326E-2,1.138915122E-2,-2.417240143E-1
8.001081614E0,-3.228294849E-2,-5.758255720E-4,-2.273607254E-1
8.011081614E0,-4.913032055E-2,-1.485982537E-2,-2.393207550E-1
8.021081614E0,-4.205811024E-2,-5.109190941E-3,-2.345180511E-1
8.031081580E0,-3.982806206E-2,-3.284960985E-4,-2.249164581E-1
8.041081580E0,-3.256571293E-2,-2.425703406E-2,-2.369003296E-1
8.051081613E0,-3.513026237E-2,-4.945814610E-3,-2.392702103E-1
8.061081646E0,-5.211472511E-2,-2.609118819E-3,-2.416305542E-1
8.071081646E0,-3.235137463E-2,-1.216188073E-2,-2.321453094E-1
8.081081646E0,-3.212118149E-2,-4.649475217E-3,-2.417631149E-1
8.091081612E0,-2.750205994E-2,1.684743166E-2,-2.345533371E-1
8.101081612E0,-2.988135815E-2,9.734511375E-3,-2.585000992E-1
8.111081645E0,-4.441809654E-2,3.209710121E-4,-2.321395874E-1
8.121081645E0,-3.498852253E-2,1.144558191E-4,-2.273254395E-1
8.131081645E0,-4.461658001E-2,4.878193140E-3,-2.536544800E-1
8.141081611E0,-5.663549900E-2,-1.178275049E-2,-2.488594055E-1
8.151081644E0,-4.446327686E-2,2.209842205E-5,-2.417049408E-1
8.161081677E0,-3.698348999E-2,2.173140645E-3,-2.441396713E-1
8.171081677E0,-4.863071442E-2,-1.001906395E-2,-2.370033264E-1
8.181081677E0,-2.417612076E-2,-5.715191364E-4,-2.418670654E-1
8.191081643E0,-3.373658657E-2,-2.928122878E-3,-2.275037766E-1
8.201081676E0,-4.118776321E-2,-7.714480162E-3,-2.202806473E-1
8.211081642E0,-2.729165554E-2,1.144222915E-2,-2.369699478E-1
8.221081642E0,-2.965962887E-2,-4.868358374E-4,-2.297916412E-1
8.231081642E0,-3.671085835E-2,6.633296609E-3,-2.202329636E-1
8.241081642E0,-3.445374966E-2,-5.760490894E-3,-2.273874283E-1
8.251081608E0,-3.223598003E-2,3.896489739E-3,-2.297573090E-1
8.261081641E0,-2.979183197E-2,-6.217703223E-3,-2.489099503E-1
8.271081674E0,-4.414427280E-2,-6.110742688E-3,-2.225770950E-1
8.281081674E0,-2.503502369E-2,-1.468792558E-3,-2.393274307E-1
8.291081674E0,-2.998757362E-2,5.695804954E-3,-2.321186066E-1
8.301081640E0,-3.988182545E-2,-2.113999426E-2,-2.344579697E-1
8.311081673E0,-4.237532616E-2,-2.083495259E-3,-2.344408035E-1
8.321081673E0,-3.518116474E-2,-1.932829618E-3,-2.416286469E-1
8.331081673E0,-5.928564072E-2,-6.372705102E-3,-2.248497009E-1
8.341081639E0,-2.529251575E-2,5.511641502E-3,-2.368917465E-1
8.351081639E0,-2.981603146E-2,-1.938745379E-3,-2.129840851E-1
8.361081639E0,-4.189896584E-2,-1.372906566E-2,-2.512779236E-1
8.371081639E0,-3.739583492E-2,-1.119504869E-2,-2.272939682E-1
8.381081639E0,-3.037393093E-2,9.070634842E-4,-2.392435074E-1
8.391081639E0,-3.742754459E-2,1.099482179E-3,-2.249011993E-1
8.401081639E0,-6.117832661E-2,-8.452549577E-3,-2.440843582E-1
8.411081605E0,-3.920853138E-2,-1.550601423E-2,-2.465448380E-1
8.421081638E0,-4.863739014E-2,-1.070214808E-2,-2.369909286E-1
8.431081638E0,-3.359854221E-2,-5.555734038E-3,-2.610416412E-1
8.441081638E0,-2.896535397E-2,-1.755596697E-2,-2.442569733E-1
8.451081604E0,-3.391540051E-2,4.090040922E-3,-2.226858139E-1
8.461081604E0,-1.240253448E-2,-1.260246336E-2,-2.442302704E-1
8.471081637E0,-2.720487118E-2,-1.456379890E-2,-2.082576752E-1
8.481081637E0,-3.676569462E-2,2.215772867E-3,-2.513570786E-1
8.491081637E0,-2.716624737E-2,-2.459704876E-3,-2.202358246E-1
8.501081603E0,-4.888963699E-2,2.714768052E-3,-2.154273987E-1
8.511081669E0,-3.444576263E-2,1.417100430E-4,-2.345905304E-1
8.521081702E0,-3.921985626E-2,7.400482893E-3,-2.585372925E-1
8.531081802E0,-4.649436474E-2,1.363754272E-4,-2.561283112E-1
8.541081802E0,-2.270364761E-2,-3.145039082E-4,-2.201824188E-1
8.551081802E0,-3.012895584E-2,-5.530849099E-3,-2.440814972E-1
8.561081768E0,-3.289914131E-2,-3.461495042E-3,-2.320480347E-1
8.571081768E0,-3.545892239E-2,-1.072824001E-3,-2.344169617E-1
8.581081801E0,-4.022407532E-2,-8.374437690E-3,-2.248411179E-1
8.591081801E0,-4.979848862E-2,-1.320058107E-2,-2.368125916E-1
8.601081801E0,-3.740239143E-2,1.572027802E-3,-2.368841171E-1
8.611081767E0,-4.948103428E-2,-7.694810629E-4,-2.344741821E-1
8.621081800E0,-3.702938557E-2,-5.609288812E-3,-2.297582626E-1
8.631081833E0,-3.228878975E-2,-1.269054413E-2,-2.297525406E-1
8.641081833E0,-3.478693962E-2,-5.348891020E-3,-2.321329117E-1
8.651081799E0,-4.434645176E-2,-1.014693081E-2,-2.273473740E-1
8.661081765E0,-4.432666302E-2,-7.779285312E-3,-2.488985062E-1
8.671081798E0,-3.001105785E-2,-2.890169621E-3,-2.393150330E-1
8.681081798E0,-3.459119797E-2,-1.208969951E-2,-2.513246536E-1
8.691081798E0,-3.211414814E-2,-1.643963158E-2,-2.417678833E-1
8.701081764E0,-2.503538132E-2,-1.517817378E-3,-2.297887802E-1
8.711081764E0,-5.152952671E-2,8.064940572E-3,-2.345542908E-1
8.721081730E0,-3.704130650E-2,3.428727388E-3,-2.321805954E-1
8.731081763E0,-3.485941887E-2,9.406358004E-4,-2.297534943E-1
8.741081796E0,-3.006207943E-2,-1.382014155E-2,-2.441129684E-1
8.751081796E0,-3.477358818E-2,-1.844793558E-3,-2.321538925E-1
8.761081762E0,-3.254842758E-2,-1.805037260E-3,-2.321281433E-1
8.771081728E0,-5.431020260E-2,2.894803882E-3,-2.344894409E-1
8.781081761E0,-2.980589867E-2,4.201978445E-4,-2.393617630E-1
8.791081761E0,-2.272486687E-2,1.014350355E-2,-2.656850815E-1
8.801081761E0,-3.690314293E-2,1.224693656E-2,-2.345838547E-1
8.811081727E0,-4.443871975E-2,2.222418785E-3,-2.488880157E-1
8.821081727E0,-4.697167873E-2,-2.972334623E-3,-2.321004868E-1
8.831081660E0,-2.781593800E-2,-2.455510199E-2,-2.225236893E-1
8.841081660E0,-3.019237518E-2,-1.021228731E-2,-2.344970703E-1
8.851081660E0,-3.953921795E-2,1.704677939E-3,-2.441082001E-1
8.861081660E0,-4.692220688E-2,-3.112286329E-3,-2.273168564E-1
8.871081626E0,-4.413294792E-2,1.590952277E-3,-2.393474579E-1
8.881081592E0,-5.121159554E-2,-1.036056876E-2,-2.513341904E-1
8.891081625E0,-2.951228619E-2,-5.495935678E-3,-2.465705872E-1
8.901081625E0,-3.174352646E-2,-1.024915278E-2,-2.394123077E-1
8.911081625E0,-1.262140274E-2,-7.740601897E-3,-2.418041229E-1
8.921081591E0,-3.695774078E-2,1.640811563E-2,-2.441415787E-1
8.931081591E0,-2.996683121E-2,-9.769842029E-3,-2.393274307E-1
8.941081624E0,-3.949296474E-2,-9.730458260E-3,-2.417297363E-1
8.951081624E0,-4.676568508E-2,7.241308689E-3,-2.536916733E-1
8.961081624E0,-3.726446629E-2,-7.015690207E-3,-2.369213104E-1
8.971081590E0,-4.225325584E-2,-2.251103520E-3,-2.416791916E-1
8.981081623E0,-3.293550014E-2,2.663999796E-3,-2.296705246E-1
8.991081656E0,-2.340972424E-2,1.438805461E-2,-2.440233231E-1
9.001081656E0,-4.780888557E-2,-5.408212543E-3,-2.391557693E-1
9.011081656E0,-5.027687550E-2,-3.115355968E-3,-2.463254929E-1
9.021081656E0,-3.366053104E-2,1.830862463E-2,-2.510900497E-1
9.031081622E0,-3.368628025E-2,5.969241261E-3,-2.582626343E-1
9.041081622E0,-2.910506725E-2,1.326408982E-2,-2.438669205E-1
9.051081655E0,-3.607475758E-2,-8.732274175E-3,-2.462873459E-1
9.061081655E0,-3.401124477E-2,-8.565574884E-3,-2.510280609E-1
9.071081655E0,-3.174281120E-2,-1.331284642E-2,-2.462205887E-1
9.081081621E0,-2.692747116E-2,-1.314549148E-2,-2.294683456E-1
9.091081654E0,-3.663444519E-2,-6.003662944E-3,-2.581787109E-1
9.101081654E0,-5.592250824E-2,-8.338928223E-3,-2.509765625E-1
9.111081654E0,-3.439891338E-2,-8.264735341E-3,-2.581577301E-1
9.121081620E0,-2.239441872E-2,-3.439843655E-3,-2.198534012E-1
9.131081586E0,-4.420030117E-2,-3.197848797E-3,-2.389726639E-1
9.141081619E0,-2.776074409E-2,-5.481168628E-3,-2.413206100E-1
9.151081619E0,-4.489600658E-2,-1.959204674E-4,-2.508487701E-1
9.161081619E0,-3.539669514E-2,-4.864320159E-3,-2.316846848E-1
9.171081619E0,-3.552794456E-2,-1.223133504E-2,-2.460279465E-1
9.181081619E0,-4.519367218E-2,4.704013467E-3,-2.292575836E-1
9.191081585E0,-5.233263969E-2,2.287268639E-3,-2.603883743E-1
9.201081618E0,-2.341556549E-2,-2.188974619E-2,-2.388648987E-1
9.211081618E0,-4.066884518E-2,9.300544858E-3,-2.340021133E-1
9.221081618E0,-3.853893280E-2,-9.800121188E-3,-2.148084641E-1
9.231081584E0,-3.891062737E-2,9.246334434E-3,-2.315101624E-1
9.241081550E0,-4.155635834E-2,6.962597370E-3,-2.434444427E-1
9.251081583E0,-3.200209141E-2,-1.222342253E-4,-2.386541367E-1
9.261081583E0,-5.375599861E-2,9.676754475E-3,-2.458095551E-1
9.271081583E0,-5.589890480E-2,2.132369578E-2,-2.338714600E-1
9.281081549E0,-4.347574711E-2,6.447598338E-3,-2.411155701E-1
9.291081549E0,-1.666200161E-2,-2.770596743E-2,-2.363882065E-1
9.301081582E0,-4.557931423E-2,-3.734841943E-3,-2.243890762E-1
9.311081615E0,-5.482280254E-2,-1.321847737E-2,-2.435951233E-1
9.321081615E0,-4.212093353E-2,1.130789518E-3,-2.389183044E-1
9.331081615E0,-5.606877804E-2,-3.670424223E-3,-2.389812469E-1
9.341081581E0,-3.168129921E-2,-2.045354247E-2,-2.294712067E-1
9.351081581E0,-5.047118664E-2,-1.787091792E-2,-2.199525833E-1
9.361081614E0,-1.643848419E-2,-1.006601751E-2,-2.463779449E-1
9.371081614E0,-3.346323967E-2,-7.454112172E-3,-2.223987579E-1
9.381081614E0,-3.604769707E-2,7.031947374E-3,-2.295541763E-1
9.391081580E0,-4.822504520E-2,-2.316489816E-3,-2.295274734E-1
9.401081613E0,-3.148102760E-2,2.831220627E-5,-2.391004562E-1
9.411081646E0,-3.856647015E-2,-1.199011505E-2,-2.367210388E-1
9.421081646E0,-2.654755116E-2,3.123283386E-5,-2.151794434E-1
9.431081646E0,-2.920031548E-2,1.225522161E-2,-2.558469772E-1
9.441081612E0,-5.818271637E-2,4.689216614E-3,-2.294664383E-1
9.451081645E0,-4.623198509E-2,-4.705622792E-3,-2.558021545E-1
9.461081645E0,-4.833543301E-2,-4.644498229E-3,-2.295112610E-1
9.471081645E0,-2.937281132E-2,-2.124622464E-3,-2.366676331E-1
9.481081645E0,-5.333578587E-2,-7.061570883E-3,-2.438440323E-1
9.491081645E0,-3.602778912E-2,2.338081598E-3,-2.463188171E-1
9.501081611E0,-4.520153999E-2,1.169492304E-2,-2.344055176E-1
9.511081644E0,-3.504478931E-2,1.663073897E-3,-2.225141525E-1
9.521081677E0,-3.456079960E-2,3.587976098E-3,-2.201852798E-1
9.531081677E0,-4.906213284E-2,-1.534132659E-2,-2.297458649E-1
9.541081677E0,-3.909564018E-2,-3.553301096E-3,-2.202243805E-1
9.551081643E0,-2.424132824E-2,-8.390262723E-3,-2.394514084E-1
9.561081676E0,-2.918004990E-2,1.355066895E-3,-2.274599075E-1
9.571081676E0,-4.134893417E-2,-9.821355343E-4,-2.130661011E-1
9.581081676E0,-5.074036121E-2,-8.395120502E-3,-2.298507690E-1
9.591081642E0,-3.872907162E-2,-3.732785583E-3,-2.537975311E-1
9.601081642E0,-2.928352356E-2,-1.370042562E-3,-2.322273254E-1
9.611081642E0,-4.881787300E-2,-3.669112921E-3,-2.441434860E-1
9.621081642E0,-4.838597775E-2,-1.083984971E-2,-2.130842209E-1
9.631081642E0,-4.080915451E-2,-1.091930270E-2,-2.155361176E-1
9.641081642E0,-3.104519844E-2,-8.154258132E-3,-2.419080734E-1
9.651081608E0,-2.357840538E-2,1.118628681E-2,-2.299833298E-1
9.661081574E0,-3.818511963E-2,-5.517706275E-3,-2.491006851E-1
9.671081607E0,-4.002118111E-2,-1.544441283E-2,-2.443914413E-1
9.681081607E0,-3.782761097E-2,1.299679279E-3,-2.419672012E-1
9.691081640E0,-4.028582573E-2,5.940973759E-3,-2.395601273E-1
9.701081606E0,-1.607954502E-2,8.097305894E-3,-2.324132919E-1
9.711081606E0,-2.820241451E-2,-8.492588997E-3,-2.156324387E-1
9.721081639E0,-3.055906296E-2,1.317441463E-3,-2.419805527E-1
9.731081639E0,-3.314304352E-2,-3.550574183E-3,-2.227954865E-1
9.741081639E0,-4.811000824E-2,3.451526165E-3,-2.370672226E-1
9.751081605E0,-4.114687443E-2,7.233023643E-4,-2.466058731E-1
9.761081638E0,-4.356455803E-2,-6.366685033E-3,-2.537870407E-1
9.771081671E0,-3.653132915E-2,3.477796912E-3,-2.346134186E-1
9.781081671E0,-3.175151348E-2,-5.956381559E-3,-2.322196960E-1
9.791081671E0,-2.961385250E-2,-5.937576294E-3,-2.226047516E-1
9.801081671E0,-4.190766811E-2,-3.273099661E-3,-2.441082001E-1
9.811081637E0,-1.559484005E-2,-8.105188608E-4,-2.417125702E-1
9.821081637E0,-4.239201546E-2,-5.826592445E-3,-2.296676636E-1
9.831081670E0,-4.241323471E-2,-8.352667093E-3,-2.344503403E-1
9.841081670E0,-3.040778637E-2,-8.232042193E-3,-2.344579697E-1
9.851081670E0,-3.061914444E-2,-1.764886081E-2,-2.392158508E-1
9.861081636E0,-3.313779831E-2,-1.033215225E-2,-2.344112396E-1
9.871081669E0,-4.257261753E-2,-7.884651423E-3,-2.128858566E-1
9.881081702E0,-2.840626240E-2,-7.600188255E-4,-2.344017029E-1
9.891081702E0,-3.817892075E-2,-1.255625486E-2,-2.439527512E-1
9.901081668E0,-6.442534924E-2,-7.552966475E-3,-2.415761948E-1
9.911081634E0,-3.773033619E-2,4.805207253E-3,-2.368478775E-1
9.921081667E0,-3.730428219E-2,-6.904885173E-3,-2.440996170E-1
9.931081667E0,-3.976988792E-2,-6.905466318E-3,-2.440891266E-1
9.941081667E0,-3.249371052E-2,5.585104227E-4,-2.560787201E-1
9.951081667E0,-4.227328300E-2,-4.234567285E-3,-2.273168564E-1
9.961081667E0,-3.540778160E-2,8.048385382E-3,-2.512168884E-1
9.971081633E0,-2.578735352E-2,3.394678235E-3,-2.296772003E-1
9.981081666E0,-5.016958714E-2,1.018643379E-3,-2.367935181E-1
9.991081666E0,-3.822994232E-2,5.841970444E-3,-2.248191833E-1
1.000108167E1,-1.921260357E-2,-3.513008356E-3,-2.343778610E-1
1.001108163E1,-3.371942043E-2,1.815752685E-2,-2.343578339E-1
1.002108160E1,-4.103100300E-2,3.278732300E-3,-2.367258072E-1
1.003108163E1,-2.662992477E-2,-3.662824631E-3,-2.415227890E-1
1.004108163E1,-4.364776611E-2,-1.665160060E-3,-2.366895676E-1
1.005108163E1,-3.888463974E-2,-6.355941296E-3,-2.342910767E-1
1.006108160E1,-2.683258057E-2,-4.381760955E-3,-2.271146774E-1
1.007108160E1,-2.678859234E-2,2.902880311E-3,-2.367000580E-1
1.008108166E1,-4.861998558E-2,9.820103645E-3,-2.366533279E-1
1.009108166E1,-2.726411819E-2,9.776785970E-3,-2.414112091E-1
1.010108163E1,-3.437137604E-2,2.016782761E-3,-2.318353653E-1
1.011108163E1,-3.931295872E-2,-7.893294096E-4,-2.557477951E-1
1.012108160E1,-3.703689575E-2,-8.563354611E-3,-2.341718674E-1
1.013108156E1,-2.513623238E-2,3.556340933E-3,-2.365579605E-1
1.014108159E1,-3.503656387E-2,9.679347277E-4,-2.532663345E-1
1.015108159E1,-5.429863930E-2,-2.006664872E-3,-2.269029617E-1
1.016108159E1,-2.804124355E-2,-2.088773251E-2,-2.316837311E-1
1.017108156E1,-4.007709026E-2,-6.635561585E-3,-2.244892120E-1
1.018108156E1,-3.526127338E-2,-4.148170352E-3,-2.508325577E-1
1.019108159E1,-3.533279896E-2,-4.160374403E-3,-2.436370850E-1
1.020108159E1,-5.445301533E-2,-6.587117910E-3,-2.436418533E-1
1.021108159E1,-5.010282993E-2,5.517259240E-3,-2.340011597E-1
1.022108156E1,-2.875876427E-2,-1.376618445E-2,-2.435445786E-1
1.023108159E1,-3.094244003E-2,-8.610293269E-3,-2.387943268E-1
1.024108163E1,-3.342366219E-2,3.456234932E-3,-2.603311539E-1
1.025108163E1,-3.590333462E-2,-6.064012647E-3,-2.315874100E-1
1.026108163E1,-5.969154835E-2,-2.043557167E-2,-2.364006042E-1
1.027108162E1,-4.503762722E-2,1.367926598E-3,-2.412366867E-1
1.028108159E1,-5.419981480E-2,3.920137882E-3,-2.556676865E-1
1.029108159E1,-3.477501869E-2,8.921518922E-3,-2.389526367E-1
1.030108162E1,-3.252625465E-2,-6.064027548E-4,-2.389316559E-1
1.031108162E1,-3.749871254E-2,9.089097381E-3,-2.508764267E-1
1.032108162E1,-1.586580276E-2,6.816223264E-3,-2.269487381E-1
1.033108159E1,-2.100801468E-2,1.640096307E-3,-2.508316040E-1
1.034108162E1,-3.329169750E-2,-1.490072906E-2,-2.436046600E-1
1.035108166E1,-5.000638962E-2,-1.004090905E-2,-2.316408157E-1
1.036108166E1,-3.104937077E-2,-2.865195274E-4,-2.435855865E-1
1.037108162E1,-3.609740734E-2,1.176372170E-2,-2.483358383E-1
1.038108156E1,-4.107820988E-2,-5.061879754E-3,-2.123908997E-1
1.039108159E1,-4.127776623E-2,6.999209523E-3,-2.482767105E-1
1.040108162E1,-2.712845802E-2,7.056012750E-3,-2.386674881E-1
1.041108162E1,-4.388988018E-2,-2.972841263E-3,-2.578144073E-1
1.042108162E1,-4.861176014E-2,6.032586098E-3,-2.458438873E-1
1.043108165E1,-4.646289349E-2,-1.074774563E-2,-2.625656128E-1
1.044108162E1,-4.869377613E-2,1.979795098E-2,-2.482147217E-1
1.045108165E1,-4.366743565E-2,-4.656955600E-3,-2.458496094E-1
1.046108165E1,-4.545438290E-2,-3.131181002E-4,-2.531166077E-1
1.047108165E1,-3.793668747E-2,6.614953279E-3,-2.387971878E-1
1.048108162E1,-5.485069752E-2,-2.792075276E-3,-2.435646057E-1
1.049108158E1,-3.986752033E-2,-7.771685719E-3,-2.221078873E-1
1.050108162E1,-3.949010372E-2,-1.053056121E-2,-2.437067032E-1
1.051108162E1,-3.232169151E-2,-3.300800920E-3,-2.508878708E-1
1.052108162E1,-3.480589390E-2,6.270676851E-3,-2.436914444E-1
1.053108158E1,-3.477871418E-2,-1.281455159E-3,-2.508735657E-1
1.054108158E1,-3.981745243E-2,-1.121960580E-2,-2.364635468E-1
1.055108162E1,-3.226006031E-2,7.078945637E-4,-2.556734085E-1
1.056108162E1,-3.229331970E-2,-1.120916009E-2,-2.389087677E-1
1.057108162E1,-4.439091682E-2,-8.647486567E-3,-2.604408264E-1
1.058108162E1,-2.525353432E-2,-8.552208543E-3,-2.388925552E-1
1.059108158E1,-4.437184334E-2,3.335058689E-3,-2.508678436E-1
1.060108158E1,-3.971755505E-2,-8.639484644E-3,-2.532415390E-1
1.061108162E1,-4.926943779E-2,8.101001382E-3,-2.676105499E-1
1.062108162E1,-3.737366199E-2,-1.340311766E-2,-2.556285858E-1
1.063108162E1,-4.225218296E-2,3.347739577E-3,-2.508258820E-1
1.064108155E1,-4.753327370E-2,-1.354673505E-2,-2.507495880E-1
1.065108155E1,-3.342127800E-2,8.241236210E-3,-2.411375046E-1
1.066108162E1,-2.398228645E-2,-1.829929650E-2,-2.219581604E-1
1.067108162E1,-4.087507725E-2,8.148416877E-3,-2.434883118E-1
1.068108162E1,-3.396475315E-2,-1.102927327E-2,-2.458410263E-1
1.069108158E1,-3.387165070E-2,-6.258800626E-3,-2.434606552E-1
1.070108161E1,-4.818379879E-2,-1.829519868E-2,-2.506504059E-1
1.071108161E1,-5.053031445E-2,-9.589493275E-4,-2.339076996E-1
1.072108161E1,-4.071903229E-2,-5.538374186E-3,-2.459182739E-1
1.073108158E1,-5.760598183E-2,-1.494172215E-2,-2.578735352E-1
1.074108158E1,-3.876805305E-2,-1.734125614E-2,-2.434587479E-1
1.075108155E1,-4.333341122E-2,6.742641330E-3,-2.411012650E-1
1.076108158E1,-4.101395607E-2,-2.680912614E-3,-2.506694794E-1
1.077108161E1,-5.540013313E-2,6.900891662E-3,-2.458782196E-1
1.078108161E1,-4.795169830E-2,4.537999630E-3,-2.411308289E-1
1.079108161E1,-3.782606125E-2,-4.332363605E-4,-2.459993362E-1
1.080108158E1,-3.984475136E-2,-7.823526859E-3,-2.460527420E-1
1.081108161E1,-3.931045532E-2,-2.214691043E-2,-2.628946304E-1
1.082108161E1,-4.629468918E-2,-2.877742052E-3,-2.389841080E-1
1.083108161E1,-2.716255188E-2,-5.397737026E-3,-2.461614609E-1
1.084108158E1,-3.681266308E-2,-1.005965471E-2,-2.246046066E-1
1.085108158E1,-3.934478760E-2,1.819252968E-3,-2.461299896E-1
1.086108161E1,-3.954529762E-2,-2.441404760E-2,-2.508897781E-1
1.087108161E1,-3.722786903E-2,-4.283785820E-4,-2.460908890E-1
1.088108161E1,-4.205155373E-2,-3.444701433E-4,-2.245388031E-1
1.089108161E1,-3.517591953E-2,-1.233644783E-2,-2.604045868E-1
1.090108161E1,-4.950630665E-2,-5.216345191E-3,-2.340726852E-1
1.091108158E1,-4.191231728E-2,-2.497956157E-3,-2.485055923E-1
1.092108161E1,-2.495789528E-2,-4.461333156E-3,-2.222051620E-1
1.093108161E1,-2.274477482E-2,-8.790403605E-3,-2.628879547E-1
1.094108164E1,-3.523433208E-2,-1.339107752E-3,-2.412662506E-1
1.095108161E1,-3.781664371E-2,-1.299470663E-3,-2.556028366E-1
1.096108157E1,-4.310500622E-2,8.394867182E-3,-2.459526062E-1
1.097108161E1,-3.647303581E-2,5.968883634E-3,-2.410793304E-1
1.098108161E1,-4.378879070E-2,-6.018787622E-3,-2.530307770E-1
1.099108161E1,-2.712261677E-2,3.587797284E-3,-2.530164719E-1
1.100108157E1,-2.974009514E-2,9.468197823E-4,-2.481889725E-1
1.101108161E1,-4.663431644E-2,-1.353926957E-2,-2.290134430E-1
1.102108164E1,-2.995431423E-2,-3.879323602E-3,-2.481555939E-1
1.103108164E1,-4.684567451E-2,2.016447484E-2,-2.433490753E-1
1.104108164E1,-1.802122593E-2,-3.798216581E-3,-2.289981842E-1
1.105108164E1,-5.169177055E-2,-6.092146039E-3,-2.577075958E-1
1.106108160E1,-5.415725708E-2,-1.318578422E-2,-2.481203079E-1
1.107108160E1,-3.465998173E-2,1.196548343E-3,-2.457799911E-1
1.108108164E1,-5.400931835E-2,1.303470135E-2,-2.409591675E-1
1.109108164E1,-4.411911964E-2,-2.067621052E-2,-2.577629089E-1
1.110108164E1,-4.362452030E-2,8.307099342E-4,-2.362899780E-1
1.111108157E1,-4.142034054E-2,-1.827685535E-2,-2.506265640E-1
1.112108160E1,-3.860187531E-2,-3.802940249E-3,-2.363281250E-1
1.113108164E1,-3.652441502E-2,1.067906618E-2,-2.458591461E-1
1.114108164E1,-4.144823551E-2,3.503724933E-3,-2.530212402E-1
1.115108160E1,-5.117809772E-2,3.373965621E-3,-2.386302948E-1
1.116108157E1,-3.854000568E-2,5.925595760E-4,-2.387247086E-1
1.117108160E1,-4.527533054E-2,-9.362831712E-3,-2.531528473E-1
1.118108160E1,-4.557728767E-2,-9.083718061E-3,-2.555055618E-1
1.119108160E1,-5.045676231E-2,-1.373611391E-2,-2.507057190E-1
1.120108157E1,-4.353380203E-2,-3.991186619E-3,-2.554578781E-1
1.121108157E1,-1.523125172E-2,-1.108036935E-2,-2.194786072E-1
1.122108153E1,-2.979815006E-2,8.145749569E-3,-2.553644180E-1
1.123108157E1,-4.670882225E-2,1.528303325E-2,-2.385807037E-1
1.124108163E1,-4.670751095E-2,-9.133338928E-3,-2.266006470E-1
1.125108163E1,-3.936636448E-2,2.511724830E-3,-2.290143967E-1
1.126108157E1,-4.644072056E-2,-6.920918822E-3,-2.410049438E-1
1.127108150E1,-3.416395187E-2,2.461791039E-3,-2.434415817E-1
1.128108153E1,-4.625606537E-2,-1.425388455E-2,-2.338476181E-1
1.129108153E1,-4.819715023E-2,-2.458274364E-3,-2.387018204E-1
1.130108153E1,-4.044985771E-2,9.614035487E-3,-2.459726334E-1
1.131108150E1,-3.584253788E-2,8.936226368E-5,-2.363691330E-1
1.132108150E1,-5.059170723E-2,-6.896406412E-3,-2.434959412E-1
1.133108156E1,-2.660524845E-2,-2.359823883E-2,-2.195606232E-1
1.134108156E1,-2.896881104E-2,7.786452770E-3,-2.554836273E-1
1.135108156E1,-4.617214203E-2,-1.497253776E-3,-2.314786911E-1
1.136108156E1,-5.097103119E-2,7.483661175E-4,-2.530241013E-1
1.137108153E1,-4.398524761E-2,-4.022791982E-3,-2.290515900E-1
1.138108150E1,-5.808997154E-2,7.886141539E-3,-2.314834595E-1
1.139108153E1,-3.353047371E-2,-8.907273412E-3,-2.579145432E-1
1.140108153E1,-3.821396828E-2,-4.164353013E-3,-2.363815308E-1
1.141108156E1,-3.547430038E-2,3.118351102E-3,-2.484064102E-1
1.142108153E1,-2.119934559E-2,-3.947019577E-3,-2.436056137E-1
1.143108153E1,-5.470228195E-2,-1.144248247E-2,-2.412090302E-1
1.144108156E1,-4.281628132E-2,-4.356727004E-3,-2.459831238E-1
1.145108156E1,-3.822004795E-2,-2.341857553E-2,-2.411670685E-1
1.146108156E1,-4.988217354E-2,1.538941264E-2,-2.292509079E-1
1.147108153E1,-3.304255009E-2,3.473624587E-3,-2.508125305E-1
1.148108156E1,-4.245805740E-2,-1.190707088E-3,-2.484445572E-1
1.149108159E1,-2.080571651E-2,3.680154681E-3,-2.293081284E-1
1.150108159E1,-3.292679787E-2,-1.062397659E-2,-2.292861938E-1
1.151108159E1,-2.324366570E-2,-5.791336298E-3,-2.556400299E-1
1.152108159E1,-3.284335136E-2,-1.761423051E-2,-2.412738800E-1
1.153108156E1,-4.010558128E-2,-7.967799902E-4,-2.364740372E-1
1.154108153E1,-2.826440334E-2,1.124152541E-2,-2.436370850E-1
1.155108156E1,-4.059946537E-2,1.339615881E-2,-2.363958359E-1
1.156108159E1,-6.462359428E-2,1.338398457E-2,-2.459602356E-1
1.157108162E1,-4.771971703E-2,-8.422672749E-3,-2.292175293E-1
1.158108159E1,-3.054547310E-2,7.965058088E-3,-2.364578247E-1
1.159107550E1,-4.238533974E-2,-1.960113645E-3,-2.292890549E-1
1.160107554E1,-2.992105484E-2,7.259026170E-3,-2.461175919E-1
1.161107554E1,-3.448164463E-2,-7.705345750E-3,-2.533254623E-1
1.162107550E1,-2.994298935E-2,-5.159392953E-3,-2.317409515E-1
1.163107544E1,-3.217470646E-2,-2.781733871E-3,-2.461318970E-1
1.164107547E1,-2.998840809E-2,-1.938317716E-2,-2.317371368E-1
1.165107547E1,-3.246104717E-2,-9.608700871E-3,-2.460937500E-1
1.166107547E1,-3.739547729E-2,4.900082946E-3,-2.436790466E-1
1.167107547E1,-4.026472569E-2,-6.953686476E-3,-2.340316772E-1
1.168107550E1,-4.071652889E-2,-4.525810480E-3,-2.483291626E-1
1.169107547E1,-5.055499077E-2,-1.164440811E-2,-2.458963394E-1
1.170107550E1,-3.848958015E-2,-9.199708700E-3,-2.435178757E-1
1.171107550E1,-4.807901382E-2,-4.429981112E-3,-2.219667435E-1
1.172107550E1,-3.875744343E-2,2.047717571E-4,-2.291088104E-1
1.173107547E1,-3.831946850E-2,-4.430383444E-3,-2.459373474E-1
1.174107543E1,-2.654552460E-2,2.772644162E-3,-2.435131073E-1
1.175107547E1,-3.140008450E-2,-1.158028841E-2,-2.171659470E-1
1.176107547E1,-4.584598541E-2,-1.628045738E-2,-2.267322540E-1
1.177107547E1,-3.827953339E-2,8.084669709E-3,-2.267980576E-1
1.178107543E1,-3.559851646E-2,-1.578624547E-2,-2.459974289E-1
1.179107543E1,-3.831052780E-2,1.096457243E-3,-2.339792252E-1
1.180107546E1,-4.539203644E-2,3.596931696E-3,-2.363920212E-1
1.181107546E1,-2.416515350E-2,1.333561540E-2,-2.291631699E-1
1.182107547E1,-4.338932037E-2,-8.267179132E-3,-2.243623734E-1
1.183107547E1,-3.834986687E-2,5.819648504E-3,-2.339725494E-1
1.184107543E1,-3.330087662E-2,-1.363487542E-2,-2.411909103E-1
1.185107543E1,-4.272317886E-2,-6.496667862E-3,-2.292413712E-1
1.186107546E1,-3.084254265E-2,-3.990530968E-3,-2.364130020E-1
1.187107546E1,-3.814995289E-2,-4.011273384E-3,-2.148437500E-1
1.188107546E1,-4.290747643E-2,-6.305307150E-3,-2.244281769E-1
1.189107543E1,-3.090226650E-2,-3.851041198E-3,-2.483768463E-1
1.190107543E1,-3.803634644E-2,-8.534789085E-3,-2.268381119E-1
1.191107546E1,-6.189250946E-2,-2.295047045E-2,-2.460050583E-1
1.192107546E1,-2.317607403E-2,-5.865558982E-3,-2.269172668E-1
1.193107546E1,-3.249394894E-2,8.948326111E-3,-2.293586731E-1
1.194107543E1,-3.730177879E-2,-2.944529057E-3,-2.389345169E-1
1.195107550E1,-5.642533302E-2,9.127020836E-3,-2.389411926E-1
1.196107550E1,-3.195822239E-2,2.579930425E-2,-2.438068390E-1
1.197107550E1,-4.381704330E-2,-6.002634764E-3,-2.462072372E-1
1.198107546E1,-3.664910793E-2,-1.077839732E-2,-2.246570587E-1
1.199107546E1,-2.921295166E-2,-1.360192895E-2,-2.414484024E-1
1.200107543E1,-3.423917294E-2,8.441656828E-4,-2.342309952E-1
1.201107546E1,-3.911626339E-2,-3.746852279E-3,-2.198543549E-1
1.202107549E1,-5.343985558E-2,8.176803589E-3,-2.318315506E-1
1.203107549E1,-5.090570450E-2,-6.503492594E-3,-2.246656418E-1
1.204107549E1,-5.027437210E-2,3.074809909E-3,-2.439146042E-1
1.205107546E1,-4.232382774E-2,6.026476622E-4,-2.392416000E-1
1.206107549E1,-5.121135712E-2,-2.123683691E-3,-2.177925110E-1
1.207107549E1,-3.862214088E-2,-4.682675004E-3,-2.154884338E-1
1.208107549E1,-2.384090424E-2,-7.100328803E-3,-2.347059250E-1
1.209107546E1,-4.325771332E-2,1.234975457E-2,-2.466430664E-1
1.210107546E1,-4.537773132E-2,-2.367928624E-3,-2.179470062E-1
1.211107549E1,-3.840506077E-2,-7.102370262E-3,-2.418584824E-1
1.212107549E1,-4.093527794E-2,-6.981715560E-3,-2.250804901E-1
1.213107549E1,-4.083740711E-2,-4.690349102E-3,-2.250938416E-1
1.214107549E1,-3.567206860E-2,2.513632178E-3,-2.179679871E-1
1.215107546E1,-3.347241879E-2,-4.575565457E-3,-2.299118042E-1
1.216107542E1,-2.599978447E-2,-2.398550510E-3,-2.251634598E-1
1.217107546E1,-3.080999851E-2,2.496927977E-3,-2.347383499E-1
1.218107546E1,-3.819286823E-2,-9.440690279E-3,-2.347087860E-1
1.219107546E1,-3.803884983E-2,1.196773350E-2,-2.323350906E-1
1.220107542E1,-2.846682072E-2,1.905575395E-3,-2.347211838E-1
1.221107542E1,-4.780280590E-2,4.452481866E-3,-2.562446594E-1
1.222107546E1,-3.093147278E-2,-5.637198687E-3,-2.131557465E-1
1.223107546E1,-3.328394890E-2,-1.261293888E-3,-2.394924164E-1
1.224107546E1,-5.480980873E-2,-1.372307539E-2,-2.059679031E-1
1.225107539E1,-3.603172302E-2,-6.359055638E-3,-2.226734161E-1
1.226107542E1,-4.267334938E-2,8.680522442E-4,-2.155733109E-1
1.227107545E1,-4.929125309E-2,2.213706076E-2,-2.348089218E-1
1.228107545E1,-3.692841530E-2,-4.738792777E-3,-2.444362640E-1
1.229107545E1,-3.227841854E-2,-7.094740868E-3,-2.468099594E-1
1.230107545E1,-3.235673904E-2,2.661183476E-3,-2.132806778E-1
1.231107542E1,-3.494763374E-2,-4.417628050E-3,-2.467727661E-1
1.232107542E1,-1.801598072E-2,-2.049222589E-3,-2.132787704E-1
1.233107545E1,-2.778911591E-2,-1.141147316E-2,-2.228288651E-1
1.234107545E1,-3.961789608E-2,-6.716370583E-3,-2.324266434E-1
1.235107545E1,-3.956377506E-2,-1.160414517E-2,-2.324323654E-1
1.236107542E1,-3.259229660E-2,-1.405680180E-2,-2.347946167E-1
1.237107545E1,-3.273117542E-2,-1.172707975E-2,-2.443494797E-1
1.238107548E1,-4.004478455E-2,-6.994783878E-3,-2.347517014E-1
1.239107548E1,-4.036641121E-2,-1.165701449E-2,-2.418880463E-1
1.240107545E1,-3.559207916E-2,2.194195986E-4,-2.083644867E-1
1.241107542E1,-3.077352047E-2,3.199577332E-4,-2.418909073E-1
1.242107545E1,-3.570091724E-2,-1.148939133E-2,-2.179288864E-1
1.243107545E1,-3.074252605E-2,-2.150863409E-3,-2.275276184E-1
1.244107545E1,-4.531562328E-2,9.943053126E-3,-2.179222107E-1
1.245107545E1,-2.600538731E-2,-9.279981256E-3,-2.227325439E-1
1.246107545E1,-5.044329166E-2,5.233988166E-3,-2.274484634E-1
1.247107542E1,-3.370571136E-2,5.655586720E-4,-2.274475098E-1
1.248107545E1,-3.408491611E-2,-6.420820951E-3,-2.297868729E-1
1.249107552E1,-5.080020428E-2,-3.990307450E-3,-2.202177048E-1
1.250107548E1,-1.923036575E-2,5.525991321E-3,-2.178897858E-1
1.251107545E1,-4.348886013E-2,1.266604662E-2,-2.178411484E-1
1.252107541E1,-3.410792351E-2,-1.356923580E-2,-2.393608093E-1
1.253107545E1,-4.131650925E-2,5.624592304E-3,-2.249937057E-1
1.254107545E1,-5.109632015E-2,5.469515920E-3,-2.249593735E-1
1.255107545E1,-3.405022621E-2,-1.385575533E-2,-2.273941040E-1
1.256107541E1,-3.151702881E-2,2.740278840E-3,-2.345952988E-1
1.257107541E1,-4.854202271E-2,-4.366993904E-3,-2.154026031E-1
1.258107545E1,-2.154135704E-2,-1.653289795E-2,-2.394418716E-1
1.259107545E1,-4.562091827E-2,2.298653126E-4,-2.370271683E-1
1.260107545E1,-3.792464733E-2,-2.160848677E-2,-2.299175262E-1
1.261107544E1,-3.076481819E-2,-7.236853242E-3,-2.394905090E-1
1.262107541E1,-2.395200729E-2,-9.541258216E-3,-2.298593521E-1
1.263107538E1,-2.624785900E-2,-2.456307411E-3,-2.274780273E-1
1.264107541E1,-1.956033707E-2,7.887184620E-5,-2.274055481E-1
1.265107541E1,-3.878688812E-2,-1.204261184E-2,-2.273921967E-1
1.266107541E1,-3.705668449E-2,7.750943303E-3,-2.368793488E-1
1.267107538E1,-4.198491573E-2,2.987518907E-3,-2.200984955E-1
1.268107538E1,-3.973197937E-2,6.739199162E-4,-2.368383408E-1
1.269107541E1,-5.153465271E-2,-4.127740860E-3,-2.177095413E-1
1.270107541E1,-2.480745316E-2,7.594585419E-3,-2.441005707E-1
1.271107541E1,-2.481114864E-2,-7.142052054E-3,-2.297286987E-1
1.272107538E1,-3.206968307E-2,4.377365112E-3,-2.321033478E-1
1.273107541E1,-3.198540211E-2,-1.526391506E-2,-2.368974686E-1
1.274107544E1,-4.463267326E-2,1.483842731E-3,-2.224283218E-1
1.275107544E1,-4.242062569E-2,-5.659967661E-3,-2.319784164E-1
1.276107544E1,-3.760385513E-2,-8.030131459E-3,-2.271947861E-1
1.277107544E1,-3.768861294E-2,-7.897257805E-3,-2.463388443E-1
1.278107541E1,-3.542280197E-2,-1.029507816E-2,-2.535028458E-1
1.279107537E1,-2.645516396E-2,-7.863104343E-3,-2.438325882E-1
1.280107544E1,-3.162527084E-2,-7.855936885E-3,-2.294092178E-1
1.281107544E1,-3.164923191E-2,-1.012505591E-2,-2.389850616E-1
1.282107544E1,-4.353535175E-2,-6.000548601E-4,-2.366027832E-1
1.283107540E1,-1.984691620E-2,-1.262804866E-2,-2.389574051E-1
1.284107544E1,-3.663396835E-2,-5.393862724E-3,-2.437429428E-1
1.285107544E1,-4.401457310E-2,-5.280822515E-3,-2.341375351E-1
1.286107544E1,-3.462433815E-2,4.269853234E-3,-2.508687973E-1
1.287107540E1,-2.973604202E-2,-3.037363291E-3,-2.197561264E-1
1.288107537E1,-2.754437923E-2,-7.871091366E-3,-2.412738800E-1
1.289107540E1,-3.253936768E-2,-1.492488384E-2,-2.268772125E-1
1.290107540E1,-1.592230797E-2,-7.775083184E-3,-2.340383530E-1
1.291107540E1,-4.270839691E-2,-3.391757607E-2,-2.411575317E-1
1.292107540E1,-2.617919445E-2,-9.431153536E-3,-2.387361526E-1
1.293107540E1,-5.779254436E-2,-1.134636998E-2,-2.243051529E-1
1.294107537E1,-4.112863541E-2,3.615662456E-3,-2.386655807E-1
1.295107540E1,-4.845285416E-2,1.294821501E-3,-2.554044724E-1
1.296107540E1,-3.616023064E-2,1.866422594E-2,-2.530708313E-1
1.297107540E1,-2.906095982E-2,6.570935249E-3,-2.219295502E-1
1.298107537E1,-2.675056458E-2,6.680563092E-3,-2.434673309E-1
1.299107533E1,-5.114591122E-2,-9.955540299E-3,-2.362184525E-1
1.300107537E1,-3.420817852E-2,-3.106951714E-3,-2.458162308E-1
1.301107537E1,-3.891766071E-2,-1.298975945E-2,-2.386407852E-1
1.302107537E1,-3.141474724E-2,8.383944631E-3,-2.362928391E-1
1.303107533E1,-1.947474480E-2,-3.696292639E-3,-2.458629608E-1
1.304107533E1,-3.620612621E-2,-1.305893064E-3,-2.410783768E-1
1.305107537E1,-2.223646641E-2,-6.449401379E-3,-2.481946945E-1
1.306107537E1,-4.883968830E-2,5.517914891E-3,-2.385768890E-1
1.307107537E1,-3.714013100E-2,-1.826867461E-2,-2.505092621E-1
1.308107537E1,-3.727865219E-2,-3.889039159E-3,-2.456998825E-1
1.309107533E1,-3.023910522E-2,-8.704364300E-3,-2.528610229E-1
1.310107533E1,-1.823985577E-2,-6.396934390E-3,-2.384977341E-1
1.311107537E1,-3.981935978E-2,-6.412893534E-3,-2.528591156E-1
1.312107533E1,-4.009759426E-2,-1.356586814E-2,-2.432384491E-1
1.313107533E1,-5.225598812E-2,7.952272892E-3,-2.360277176E-1
1.314107530E1,-3.791880608E-2,-1.604479551E-2,-2.455997467E-1
1.315107533E1,-4.992079735E-2,-8.888050914E-3,-2.288351059E-1
1.316107540E1,-4.250800610E-2,-1.361936331E-3,-2.384529114E-1
1.317107540E1,-4.733753204E-2,-6.045714021E-3,-2.576017380E-1
1.318107540E1,-3.783309460E-2,-3.458723426E-3,-2.528057098E-1
1.319107536E1,-4.510521889E-2,-1.569510996E-2,-2.336330414E-1
1.320107540E1,-4.282772541E-2,1.459732652E-3,-2.455940247E-1
1.321107540E1,-5.934643745E-2,-5.427435040E-3,-2.408475876E-1
1.322107543E1,-3.722584248E-2,-7.745936513E-3,-2.409362793E-1
1.323107543E1,-3.657901287E-2,-1.252210140E-2,-2.362461090E-1
1.324107543E1,-4.103672504E-2,4.606246948E-3,-2.434844971E-1
1.325107539E1,-3.832888603E-2,-1.449733973E-2,-2.363510132E-1
1.326107543E1,-3.300106525E-2,6.878867745E-3,-2.436122894E-1
1.327107546E1,-3.559124470E-2,2.390474081E-3,-2.411937714E-1
1.328107546E1,-4.479432106E-2,-7.688537240E-3,-2.340593338E-1
1.329107546E1,-4.751634598E-2,-7.701143622E-3,-2.364034653E-1
1.330107543E1,-4.247498512E-2,9.213298559E-3,-2.268667221E-1
1.331107546E1,-3.740286827E-2,-3.163115680E-2,-2.340908051E-1
1.332107546E1,-3.716862202E-2,-1.229943335E-2,-2.293415070E-1
1.333107546E1,-2.490544319E-2,7.361471653E-3,-2.485475540E-1
1.334107543E1,-1.290631294E-2,7.504314184E-3,-2.461605072E-1
1.335107543E1,-4.872512817E-2,-2.039432526E-3,-2.581472397E-1
1.336107546E1,-3.683805466E-2,1.254771650E-2,-2.270116806E-1
1.337107546E1,-4.419171810E-2,-2.280399203E-3,-2.557096481E-1
1.338107546E1,-3.685986996E-2,-5.191653967E-3,-2.341756821E-1
1.339107546E1,-4.184925556E-2,-2.764016390E-3,-2.604818344E-1
1.340107542E1,-4.167020321E-2,-8.109807968E-3,-2.413463593E-1
1.341107539E1,-3.427708149E-2,-3.414660692E-3,-2.437696457E-1
1.342107546E1,-4.133462906E-2,-1.227498055E-3,-2.389974594E-1
1.343107546E1,-4.586422443E-2,-6.175905466E-3,-2.486114502E-1
1.344107546E1,-3.164350986E-2,-8.471071720E-3,-2.438020706E-1
1.345107542E1,-4.803264141E-2,-1.545920968E-2,-2.510452271E-1
1.346107539E1,-3.626310825E-2,-1.311141253E-2,-2.414369583E-1
1.347107542E1,-3.377068043E-2,-3.319501877E-3,-2.414550781E-1
1.348107542E1,-4.840815067E-2,-1.284712553E-2,-2.557802200E-1
1.349107542E1,-3.192901611E-2,-1.977860928E-2,-2.509536743E-1
1.350107539E1,-4.854166508E-2,1.193879545E-2,-2.294368744E-1
1.351107542E1,-2.139008045E-2,1.225221157E-2,-2.726621628E-1
1.352107542E1,-3.595626354E-2,3.153085709E-4,-2.462959290E-1
1.353107542E1,-5.046248436E-2,-4.859566689E-3,-2.319021225E-1
1.354107542E1,-2.409982681E-2,2.476587892E-3,-2.343034744E-1
1.355107542E1,-4.101574421E-2,-1.002623141E-2,-2.438478470E-1
1.356107539E1,-4.104208946E-2,6.782233715E-3,-2.103242874E-1
1.357107539E1,-2.468121052E-2,-7.171824574E-3,-2.413969040E-1
1.358107542E1,-2.972722054E-2,-2.183303237E-3,-2.341785431E-1
1.359107542E1,-4.700362682E-2,9.526461363E-3,-2.388839722E-1
1.360107542E1,-3.245329857E-2,4.319071770E-3,-2.389049530E-1
1.361107542E1,-3.990972042E-2,4.290714860E-3,-2.508335114E-1
1.362107545E1,-3.507912159E-2,1.609623432E-3,-2.292871475E-1
1.363107548E1,-2.518939972E-2,-5.939647555E-3,-2.460880280E-1
1.364107548E1,-3.954648972E-2,7.357597351E-4,-2.388982773E-1
1.365107545E1,-5.195581913E-2,-1.707941294E-3,-2.603788376E-1
1.366107542E1,-2.794837952E-2,-1.401218772E-2,-2.388343811E-1
1.367107545E1,-3.527235985E-2,-6.687775254E-3,-2.412109375E-1
1.368107545E1,-2.578055859E-2,-2.332855761E-2,-2.340164185E-1
1.369107545E1,-4.555690289E-2,-1.316466928E-2,-2.363271713E-1
1.370107545E1,-4.822182655E-2,-5.940049887E-3,-2.338914871E-1
1.371107545E1,-3.891730309E-2,3.580629826E-3,-2.482137680E-1
1.372107542E1,-4.631006718E-2,-8.473038673E-3,-2.338161469E-1
1.373107545E1,-5.625867844E-2,1.195490360E-3,-2.409429550E-1
1.374107548E1,-3.387784958E-2,-1.296830177E-2,-2.602272034E-1
1.375107548E1,-5.758464336E-2,1.737192273E-3,-2.435092926E-1
1.376107545E1,-5.020320415E-2,-7.578581572E-3,-2.435436249E-1
1.377107541E1,-3.497445583E-2,-1.472698152E-2,-2.317037582E-1
1.378107545E1,-5.611610413E-2,4.703283310E-3,-2.317705154E-1
1.379107545E1,-3.435742855E-2,-2.245441079E-3,-2.533550262E-1
1.380107545E1,-5.365490913E-2,-2.077639103E-3,-2.413654327E-1
1.381107541E1,-2.462887764E-2,2.655595541E-3,-2.438030243E-1
1.382107541E1,-4.586923122E-2,-9.532302618E-3,-2.486343384E-1
1.383107545E1,-3.118908405E-2,-6.993845105E-3,-2.367143631E-1
1.384107545E1,-1.654613018E-2,-4.562199116E-3,-2.319679260E-1
1.385107545E1,-3.573191166E-2,5.107626319E-3,-2.606954575E-1
1.386107545E1,-2.384638786E-2,-9.142175317E-3,-2.535018921E-1
1.387107541E1,-3.352534771E-2,4.330873489E-4,-2.439088821E-1
1.388107538E1,-4.829990864E-2,5.015850067E-3,-2.510271072E-1
1.389107541E1,-3.407883644E-2,3.219544888E-4,-2.653713226E-1
1.390107541E1,-3.422284126E-2,5.030184984E-4,-2.438049316E-1
1.391107538E1,-4.376161098E-2,-1.377081871E-2,-2.629661560E-1
1.392107534E1,-4.648697376E-2,-1.842960715E-2,-2.581300735E-1
1.393107534E1,-3.963088989E-2,-1.126782596E-2,-2.461080551E-1
1.394107538E1,-3.498578072E-2,-1.627236605E-3,-2.412986755E-1
1.395107538E1,-5.377852917E-2,1.264572144E-3,-2.389678955E-1
1.396107538E1,-4.383671284E-2,-3.474503756E-3,-2.462072372E-1
1.397107534E1,-3.188049793E-2,3.512024879E-3,-2.366237640E-1
1.398107538E1,-2.713787556E-2,-1.147300005E-3,-2.533798218E-1
1.399107541E1,-3.677523136E-2,-3.921478987E-3,-2.509689331E-1
1.400107541E1,-2.723288536E-2,-1.108859479E-2,-2.246274948E-1
1.401107541E1,-3.474187851E-2,3.335356712E-3,-2.413387299E-1
1.402107541E1,-2.759063244E-2,-1.103511453E-2,-2.389392853E-1
1.403107537E1,-4.489850998E-2,-1.666873693E-3,-2.412471771E-1
1.404107537E1,-3.330695629E-2,-4.404291511E-3,-2.435770035E-1
1.405107541E1,-4.535055161E-2,1.002334058E-2,-2.196245193E-1
1.406107541E1,-3.562235832E-2,2.829492092E-3,-2.292251587E-1
1.407107541E1,-2.837622166E-2,9.696841240E-3,-2.244415283E-1
1.408107537E1,-2.119743824E-2,2.074837685E-3,-2.435865402E-1
1.409107541E1,-4.751253128E-2,9.221851826E-3,-2.483778000E-1
1.410107537E1,-4.517233372E-2,6.150305271E-3,-2.507524490E-1
1.411107537E1,-3.565406799E-2,-3.844395280E-3,-2.627086639E-1
1.412107534E1,-2.630341053E-2,-4.130959511E-3,-2.387256622E-1
1.413107530E1,-3.590035439E-2,3.210052848E-3,-2.554855347E-1
1.414107534E1,-3.863155842E-2,5.273193121E-3,-2.386693954E-1
1.415107534E1,-2.685832977E-2,-1.607486606E-2,-2.386417389E-1
1.416107534E1,-9.438991547E-4,-4.446059465E-3,-2.218112946E-1
1.417107534E1,-3.255558014E-2,2.721086144E-3,-2.480745316E-1
1.418107534E1,-3.813838959E-2,-2.379642427E-2,-2.431612015E-1
1.419107530E1,-5.738604069E-2,-2.150681615E-2,-2.479343414E-1
1.420107534E1,-4.795098305E-2,1.207904518E-2,-2.311534882E-1
1.421107534E1,-2.887105942E-2,2.481177449E-3,-2.526912689E-1
1.422107534E1,-3.632903099E-2,-4.839360714E-3,-2.310981750E-1
1.423107530E1,-4.593896866E-2,-7.132664323E-3,-2.406721115E-1
1.424107527E1,-6.032049656E-2,-1.670724154E-2,-2.406702042E-1
1.425107530E1,-4.301762581E-2,-1.182132959E-2,-2.383594513E-1
1.426107530E1,-3.113603592E-2,-6.979301572E-3,-2.527132034E-1
1.427107530E1,-4.798543453E-2,-2.137199044E-3,-2.191791534E-1
1.428107527E1,-5.280530453E-2,-1.413033903E-2,-2.215690613E-1
1.429107527E1,-3.524899483E-2,2.940580249E-3,-2.528219223E-1
1.430107530E1,-5.151653290E-2,3.323376179E-3,-2.409315109E-1
1.431107533E1,-7.030284405E-2,-1.353383064E-3,-2.553548813E-1
1.432107533E1,-2.875602245E-2,5.985394120E-3,-2.339382172E-1
1.433107533E1,-3.306984901E-2,-3.804251552E-3,-2.292175293E-1
1.434107530E1,-3.992342949E-2,-3.751531243E-3,-2.508172989E-1
1.435107530E1,-3.455448151E-2,3.093510866E-3,-2.580833435E-1
1.436107533E1,-2.727842331E-2,-1.142133772E-2,-2.437286377E-1
1.437107533E1,-3.209781647E-2,5.398094654E-4,-2.580890656E-1
1.438107533E1,-3.661286831E-2,2.821967006E-3,-2.461576462E-1
1.439107530E1,-3.211188316E-2,-2.156853676E-3,-2.461109161E-1
1.440107536E1,-3.220391273E-2,-6.862029433E-3,-2.173671722E-1
1.441107540E1,-3.942060471E-2,-1.970350742E-3,-2.508840561E-1
1.442107540E1,-4.210293293E-2,2.554833889E-3,-2.556238174E-1
1.443107540E1,-4.452741146E-2,5.309060216E-3,-2.532320023E-1
1.444107536E1,-5.419445038E-2,-4.217728972E-3,-2.412471771E-1
1.445107543E1,-5.843245983E-2,5.171954632E-3,-2.676639557E-1
1.446107543E1,-4.134225845E-2,1.603364944E-5,-2.557373047E-1
1.447107543E1,-5.065596104E-2,-5.164906383E-3,-2.366170883E-1
1.448107543E1,-4.537749290E-2,-5.359411240E-3,-2.606296539E-1
1.449107543E1,-2.797150612E-2,-3.137677908E-3,-2.415714264E-1
1.450107540E1,-3.010463715E-2,-5.719915032E-3,-2.463960648E-1
1.451107543E1,-2.541768551E-2,3.958493471E-3,-2.415933609E-1
1.452107546E1,-2.799630165E-2,-3.593385220E-3,-2.511358261E-1
1.453107546E1,-3.519928455E-2,-1.050680876E-3,-2.439527512E-1
1.454107546E1,-4.269206524E-2,-1.471936703E-3,-2.319269180E-1
1.455107543E1,-3.572273254E-2,-6.193235517E-3,-2.223186493E-1
1.456107546E1,-2.851939201E-2,-6.101638079E-3,-2.558431625E-1
1.457107546E1,-4.117536545E-2,-4.034414887E-3,-2.246084213E-1
1.458107546E1,-3.905272484E-2,-1.109495759E-2,-2.293577194E-1
1.459107543E1,-3.624653816E-2,-1.103177667E-3,-2.533702850E-1
1.460107543E1,-3.596985340E-2,-8.325859904E-3,-2.486219406E-1
1.461107543E1,-4.062032700E-2,3.581330180E-3,-2.318820953E-1
1.462107543E1,-2.901065350E-2,3.652423620E-3,-2.677431107E-1
1.463107543E1,-4.593098164E-2,3.513514996E-3,-2.629280090E-1
1.464107543E1,-6.990718842E-2,-1.314198971E-2,-2.677125931E-1
1.465107539E1,-4.603707790E-2,-1.108869910E-3,-2.365779877E-1
1.466107536E1,-4.334509373E-2,-1.538161933E-2,-2.366247177E-1
1.467107539E1,-3.317272663E-2,-5.792945623E-3,-2.367153168E-1
1.468107539E1,-3.742814064E-2,3.904312849E-3,-2.367982864E-1
1.469107539E1,-3.751778603E-2,-1.770593226E-2,-2.391777039E-1
1.470107536E1,-3.035569191E-2,-5.576223135E-3,-2.415723801E-1
1.471107536E1,-4.492068291E-2,1.723349094E-3,-2.439365387E-1
1.472107539E1,-3.503251076E-2,-3.030449152E-3,-2.368030548E-1
1.473107539E1,-3.751480579E-2,-7.771357894E-3,-2.415790558E-1
1.474107539E1,-4.717242718E-2,-7.739111781E-3,-2.391729355E-1
1.475107532E1,-5.394983292E-2,2.117469907E-3,-2.320556641E-1
1.476107536E1,-4.206788540E-2,4.560068250E-3,-2.440147400E-1
1.477107539E1,-4.646015167E-2,4.553794861E-3,-2.608346939E-1
1.478107542E1,-2.997350693E-2,-9.746849537E-5,-2.392473221E-1
1.479107542E1,-4.931974411E-2,-9.761691093E-3,-2.440042496E-1
1.480107542E1,-2.969062328E-2,-2.783417702E-3,-2.440729141E-1
1.481107539E1,-1.768326759E-2,-7.766619325E-3,-2.321033478E-1
1.482107539E1,-3.467309475E-2,-7.728919387E-3,-2.392530441E-1
1.483107542E1,-3.487598896E-2,-5.286529660E-3,-2.416181564E-1
1.484107542E1,-3.734707832E-2,-9.969636798E-3,-2.535791397E-1
1.485107542E1,-5.664849281E-2,-1.704797149E-2,-2.463750839E-1
1.486107539E1,-3.286480904E-2,2.241313457E-3,-2.463531494E-1
1.487107542E1,-3.563463688E-2,7.141798735E-3,-2.486925125E-1
1.488107545E1,-4.283726215E-2,-1.205459237E-2,-2.534780502E-1
1.489107545E1,-4.287004471E-2,-9.666606784E-3,-2.415018082E-1
1.490107542E1,-2.151525021E-2,-7.325261831E-3,-2.558364868E-1
1.491107538E1,-3.125250340E-2,-1.684182882E-2,-2.366590500E-1
1.492107542E1,-2.924323082E-2,-4.747301340E-3,-2.485733032E-1
1.493107542E1,-3.895568848E-2,-1.176661253E-2,-2.389783859E-1
1.494107542E1,-3.683435917E-2,-4.350081086E-3,-2.437295914E-1
1.495107542E1,-2.997052670E-2,-1.394961774E-2,-2.580471039E-1
1.496107542E1,-3.024291992E-2,-8.919432759E-3,-2.508268356E-1
1.497107538E1,-3.744733334E-2,-8.858025074E-3,-2.532196045E-1
1.498107542E1,-3.270673752E-2,-2.306248248E-2,-2.508201599E-1
1.499107545E1,-4.739844799E-2,8.617311716E-3,-2.459907532E-1
1.500107545E1,-2.102351189E-2,1.508608460E-3,-2.340269089E-1
1.501107542E1,-2.380263805E-2,3.926992416E-3,-2.339687347E-1
1.502107538E1,-5.012190342E-2,-1.023110747E-2,-2.315797806E-1
1.503107542E1,-3.600418568E-2,-6.878674030E-4,-2.554845810E-1
1.504107542E1,-3.831613064E-2,1.135295630E-2,-2.315559387E-1
1.505107542E1,-3.607082367E-2,-1.726356149E-2,-2.435054779E-1
1.506107538E1,-3.867030144E-2,-9.923577309E-3,-2.650260925E-1
1.507107538E1,-2.941346169E-2,-1.480919123E-2,-2.290620804E-1
1.508107538E1,-2.005195618E-2,-2.599358559E-4,-2.649459839E-1
1.509107538E1,-3.677868843E-2,-7.216319442E-3,-2.553777695E-1
1.510107538E1,-5.174016953E-2,-4.390850663E-3,-2.433233261E-1
1.511107538E1,-4.229903221E-2,-6.818264723E-3,-2.409086227E-1
1.512107535E1,-5.448913574E-2,-4.202097654E-3,-2.528495789E-1
1.513107531E1,-4.727017879E-2,7.870912552E-3,-2.432794571E-1
1.514107535E1,-3.721034527E-2,2.980947495E-3,-2.505340576E-1
1.515107535E1,-4.208970070E-2,-1.857981086E-3,-2.265768051E-1
1.516107535E1,-5.647778511E-2,6.099045277E-4,-2.409400940E-1
1.517107531E1,-2.469110489E-2,5.242243409E-3,-2.649803162E-1
1.518107531E1,-4.159963131E-2,2.963885665E-3,-2.290468216E-1
1.519107535E1,-3.677380085E-2,-1.140394807E-2,-2.410230637E-1
1.520107535E1,-5.093491077E-2,-3.864571452E-3,-2.314825058E-1
1.521107535E1,-3.343117237E-2,-4.066914320E-3,-2.459592819E-1
1.522107531E1,-3.106367588E-2,1.262703538E-2,-2.339820862E-1
1.523107534E1,-3.819990158E-2,2.653285861E-3,-2.507419586E-1
1.524107538E1,-3.570795059E-2,-4.555284977E-5,-2.315979004E-1
1.525107538E1,-3.567516804E-2,2.385362983E-3,-2.363929749E-1
1.526107538E1,-3.083145618E-2,1.626874506E-2,-2.339982986E-1
1.527107538E1,-4.031658173E-2,-1.011118293E-3,-2.579460144E-1
1.528107534E1,-2.853298187E-2,-8.613765240E-3,-2.507276535E-1
1.529107534E1,-4.292237759E-2,-1.331014931E-2,-2.363605499E-1
1.530107538E1,-3.823864460E-2,1.062080264E-3,-2.650747299E-1
1.531107538E1,-4.782438278E-2,-1.308888197E-3,-2.770452499E-1
1.532107538E1,-4.050016403E-2,-1.117989421E-2,-2.459363937E-1
1.533107534E1,-3.346920013E-2,-1.581422985E-2,-2.483100891E-1
1.534107538E1,-3.350079060E-2,1.021638513E-3,-2.411241531E-1
1.535107538E1,-4.617881775E-2,-3.864496946E-3,-2.505922318E-1
1.536107538E1,-3.878009319E-2,-1.109397411E-2,-2.386531830E-1
1.537107534E1,-3.139412403E-2,-1.144826412E-3,-2.602386475E-1
1.538107531E1,-2.943313122E-2,-3.567188978E-3,-2.505950928E-1
1.539107534E1,-4.388904572E-2,2.051624656E-2,-2.481899261E-1
1.540107534E1,-3.686392307E-2,7.810786366E-3,-2.337875366E-1
1.541107534E1,-3.472232819E-2,-9.417593479E-3,-2.385292053E-1
1.542107534E1,-3.749120235E-2,-1.181186736E-2,-2.648086548E-1
1.543107534E1,-3.788030148E-2,-4.375845194E-3,-2.479944229E-1
1.544107531E1,-4.520809650E-2,-8.985444903E-3,-2.503700256E-1
1.545107534E1,-4.251539707E-2,-1.387742162E-2,-2.528085709E-1
1.546107534E1,-5.941307545E-2,-1.359696686E-2,-2.264547348E-1
1.547107534E1,-3.788578510E-2,-1.363421977E-2,-2.456054688E-1
1.548107531E1,-3.233313560E-2,-8.584171534E-3,-2.337541580E-1
1.549107527E1,-4.387235641E-2,-1.254603267E-3,-2.457942963E-1
1.550107530E1,-5.779361725E-2,-1.550070941E-2,-2.291040421E-1
1.551107530E1,-4.300737381E-2,-1.539136469E-2,-2.579011917E-1
1.552107530E1,-4.489493370E-2,-3.029242158E-3,-2.364368439E-1
1.553107527E1,-5.415642262E-2,-1.003725827E-2,-2.460641861E-1
1.554107527E1,-3.477895260E-2,1.195369661E-2,-2.197685242E-1
1.555107530E1,-3.434288502E-2,-7.366612554E-3,-2.533521652E-1
1.556107534E1,-3.202533722E-2,2.103224397E-3,-2.413673401E-1
1.557107534E1,-3.389382362E-2,6.690725684E-3,-2.462320328E-1
1.558107534E1,-4.071009159E-2,1.353636384E-3,-2.271242142E-1
1.559107530E1,-3.823649883E-2,-1.299965382E-2,-2.558670044E-1
1.560107530E1,-3.777563572E-2,-1.067501307E-2,-2.367830276E-1
1.561107534E1,-3.300595284E-2,-8.347406983E-3,-2.583265305E-1
1.562107534E1,-2.100276947E-2,-1.308962703E-3,-2.439632416E-1
1.563107534E1,-2.816236019E-2,-6.146252155E-3,-2.367839813E-1
1.564107530E1,-2.118659019E-2,1.291048527E-2,-2.678756714E-1
1.565107533E1,-5.316245556E-2,1.027539372E-2,-2.438001633E-1
1.566107537E1,-3.406119347E-2,-1.162131131E-2,-2.461805344E-1
1.567107537E1,-3.174757957E-2,-1.158496737E-2,-2.533521652E-1
1.568107537E1,-4.632961750E-2,1.962383091E-2,-2.389545441E-1
1.569107533E1,-2.013123035E-2,-1.399008930E-2,-2.652683258E-1
1.570107537E1,-5.672204494E-2,-1.881170273E-2,-2.412223816E-1
1.571107537E1,-2.095484734E-2,-1.622460783E-2,-2.340202332E-1
1.572107537E1,-2.828621864E-2,7.728427649E-3,-2.339982986E-1
1.573107537E1,-5.015385151E-2,-1.792728901E-3,-2.626819611E-1
1.574107537E1,-3.555381298E-2,-2.322345972E-3,-2.531318665E-1
1.575107533E1,-4.054999352E-2,2.456784248E-3,-2.435226440E-1
1.576107537E1,-3.383588791E-2,-2.186885476E-2,-2.458391190E-1
1.577107540E1,-4.605996609E-2,-5.204945803E-3,-2.410106659E-1
1.578107540E1,-2.453386784E-2,-2.649456263E-3,-2.457981110E-1
1.579107540E1,-3.917312622E-2,4.680514336E-3,-2.266044617E-1
1.580107536E1,-3.470599651E-2,-1.677781343E-2,-2.265567780E-1
1.581107540E1,-3.719305992E-2,2.439677715E-3,-2.600641251E-1
1.582107543E1,-3.966856003E-2,4.976913333E-3,-2.385053635E-1
1.583107543E1,-3.747987747E-2,-2.045020461E-3,-2.360839844E-1
1.584107540E1,-5.433428288E-2,-4.345074296E-3,-2.480411530E-1
1.585107540E1,-4.457366467E-2,-7.015064359E-3,-2.552480698E-1
1.586107540E1,-1.837074757E-2,-1.893977821E-2,-2.528343201E-1
1.587107540E1,-3.036081791E-2,-1.872196794E-2,-2.312860489E-1
1.588107540E1,-4.212689400E-2,-1.166562736E-2,-2.552576065E-1
1.589107540E1,-4.478716850E-2,5.708187819E-3,-2.360744476E-1
1.590107536E1,-3.300726414E-2,-1.086121798E-2,-2.504138947E-1
1.591107533E1,-4.753088951E-2,-3.650411963E-3,-2.384185791E-1
1.592107536E1,-5.247497559E-2,3.607556224E-3,-2.360019684E-1
1.593107536E1,-2.812957764E-2,8.316650987E-3,-2.336673737E-1
1.594107536E1,-4.228937626E-2,-1.107734442E-2,-2.432718277E-1
1.595107533E1,-3.069436550E-2,1.015096903E-3,-2.456102371E-1
1.596107533E1,-4.054534435E-2,-6.027698517E-3,-2.359943390E-1
1.597107536E1,-4.302942753E-2,-8.386895061E-3,-2.551355362E-1
1.598107536E1,-4.084587097E-2,-1.057150960E-2,-2.407417297E-1
1.599107536E1,-2.908015251E-2,-9.304136038E-4,-2.526826859E-1
1.600107533E1,-5.327069759E-2,-5.669608712E-3,-2.526454926E-1
1.601107536E1,-4.631114006E-2,-1.270008087E-2,-2.502193451E-1
1.602107539E1,-5.597090721E-2,-5.557090044E-3,-2.454185486E-1
1.603107539E1,-2.931880951E-2,-3.063946962E-3,-2.382850647E-1
1.604107539E1,-4.635357857E-2,1.790061593E-3,-2.430324554E-1
1.605107539E1,-3.877890110E-2,-1.245850325E-2,-2.335176468E-1
1.606107536E1,-3.602099419E-2,2.228885889E-3,-2.455492020E-1
1.607107536E1,-5.981731415E-2,-4.730865359E-3,-2.407875061E-1
1.608107539E1,-3.293609619E-2,-9.448871017E-3,-2.336883545E-1
1.609107539E1,-4.703605175E-2,-6.818950176E-3,-2.433099747E-1
1.610107539E1,-3.286564350E-2,-1.625394821E-2,-2.432823181E-1
1.611107536E1,-4.732096195E-2,5.243018270E-3,-2.384786606E-1
1.612107536E1,-5.378127098E-2,2.792626619E-3,-2.457714081E-1
1.613107539E1,-4.597759247E-2,-4.485696554E-3,-2.410755157E-1
1.614107539E1,-5.027544498E-2,3.973990679E-4,-2.435455322E-1
1.615107536E1,-4.276704788E-2,3.733634949E-4,-2.483835220E-1
1.616107532E1,-2.531027794E-2,-1.173971593E-2,-2.436990738E-1
1.617107536E1,-5.623829365E-2,-6.548106670E-3,-2.461299896E-1
1.618107536E1,-2.940607071E-2,-4.007771611E-3,-2.557849884E-1
1.619107536E1,-3.672909737E-2,8.064359426E-3,-2.413997650E-1
1.620107536E1,-3.892993927E-2,3.170371056E-3,-2.557926178E-1
1.621107536E1,-5.340194702E-2,-4.074156284E-3,-2.533817291E-1
1.622107532E1,-4.145407677E-2,3.088682890E-3,-2.390117645E-1
1.623107535E1,-3.398931026E-2,5.965828896E-4,-2.510242462E-1
1.624107539E1,-3.180623055E-2,3.099054098E-3,-2.581768036E-1
1.625107539E1,-3.425097466E-2,-2.111493051E-2,-2.414045334E-1
1.626107535E1,-2.699291706E-2,2.958372235E-3,-2.438125610E-1
1.627107532E1,-3.690254688E-2,-7.059410214E-3,-2.293901443E-1
1.628107535E1,-2.973008156E-2,-4.731222987E-3,-2.581176758E-1
1.629107535E1,-3.084421158E-2,-1.425921917E-2,-2.435827255E-1
1.630107535E1,-3.308355808E-2,9.817555547E-3,-2.412147522E-1
1.631107532E1,-3.316617012E-2,-9.191825986E-3,-2.268390656E-1
1.632107532E1,-3.372931480E-2,3.555715084E-4,-2.483005524E-1
1.633107538E1,-2.668213844E-2,-1.634600759E-2,-2.267332077E-1
1.634107538E1,-3.874933720E-2,-4.278555512E-3,-2.530574799E-1
1.635107538E1,-2.692496777E-2,-1.710608602E-3,-2.314891815E-1
1.636107538E1,-4.600584507E-2,-1.370503008E-2,-2.554426193E-1
1.637107535E1,-3.428745270E-2,-4.116490483E-3,-2.577991486E-1
1.638107532E1,-3.653383255E-2,-1.128818095E-2,-2.458505630E-1
1.639107535E1,-4.882037640E-2,-5.831986666E-3,-2.553901672E-1
1.640107535E1,-3.466618061E-2,-1.051269472E-2,-2.481775284E-1
1.641107535E1,-2.763068676E-2,6.253033876E-3,-2.361841202E-1
1.642107532E1,-3.968513012E-2,-1.524899900E-2,-2.361726761E-1
1.643107532E1,-3.995108604E-2,6.262242794E-3,-2.457084656E-1
1.644107535E1,-5.446839333E-2,1.127786934E-2,-2.504768372E-1
1.645107535E1,-4.012894630E-2,4.006460309E-3,-2.289228439E-1
1.646107535E1,-4.938006401E-2,6.022691727E-3,-2.553033829E-1
1.647107531E1,-4.448246956E-2,-3.774106503E-3,-2.529220581E-1
1.648107535E1,-4.676473141E-2,7.944673300E-3,-2.481460571E-1
1.649107538E1,-2.493000031E-2,-2.066135406E-3,-2.386054993E-1
1.650107538E1,-2.524888515E-2,-1.397335529E-2,-2.409524918E-1
1.651107538E1,-5.162525177E-2,1.701499522E-2,-2.265787125E-1
1.652107538E1,-3.467726707E-2,6.947994232E-3,-2.409639359E-1
1.653107535E1,-3.938353062E-2,-1.241955161E-2,-2.218189240E-1
1.654107535E1,-3.940808773E-2,2.125725150E-3,-2.481555939E-1
1.655107538E1,-3.716266155E-2,7.003664970E-3,-2.553176880E-1
1.656107538E1,-2.740883827E-2,-1.518371701E-2,-2.242078781E-1
1.657107538E1,-3.958845139E-2,-7.826641202E-3,-2.481212616E-1
1.658107535E1,-4.188108444E-2,1.710668206E-3,-2.529249191E-1
1.659107534E1,-2.754127979E-2,1.376089454E-2,-2.385578156E-1
1.660107534E1,-3.481876850E-2,-3.004983068E-3,-2.409372330E-1
1.661107534E1,-4.174351692E-2,-1.058313251E-2,-2.313919067E-1
1.662107531E1,-4.410743713E-2,-5.921721458E-3,-2.409715652E-1
1.663107524E1,-3.923249245E-2,1.076248288E-2,-2.361955643E-1
1.664107528E1,-4.143726826E-2,8.660107851E-4,-2.386131287E-1
1.665107528E1,-3.433811665E-2,1.019179821E-3,-2.314195633E-1
1.666107528E1,-4.388213158E-2,-1.443848014E-3,-2.410020828E-1
1.667107528E1,-3.438758850E-2,-1.086841524E-2,-2.529630661E-1
1.668107528E1,-4.878377914E-2,-1.312321424E-2,-2.290172577E-1
1.669107524E1,-4.407489300E-2,-1.042246819E-3,-2.409791946E-1
1.670107528E1,-3.943562508E-2,-1.068764925E-2,-2.361669540E-1
1.671107528E1,-3.959047794E-2,3.657236695E-3,-2.385358810E-1
1.672107528E1,-3.967046738E-2,6.174370646E-3,-2.504968643E-1
1.673107524E1,-4.717624187E-2,-1.288570464E-2,-2.504501343E-1
1.674107521E1,-3.967833519E-2,-9.212046862E-4,-2.457094193E-1
1.675107524E1,-3.994321823E-2,-5.664899945E-3,-2.313032150E-1
1.676107524E1,-3.781473637E-2,-5.618199706E-3,-2.288703918E-1
1.677107524E1,-4.448056221E-2,-1.520322263E-2,-2.433137894E-1
1.678107521E1,-2.769136429E-2,-2.702064812E-2,-2.624759674E-1
1.679107521E1,-6.368029118E-2,7.013276219E-3,-2.576847076E-1
1.680107524E1,-4.945409298E-2,-6.993114948E-5,-2.600584030E-1
1.681107527E1,-3.705739975E-2,-7.132589817E-3,-2.505483627E-1
1.682107527E1,-5.624032021E-2,-9.396776557E-3,-2.361812592E-1
1.683107527E1,-4.179275036E-2,-6.853520870E-3,-2.505607605E-1
1.684107524E1,-3.648519516E-2,-9.100750089E-3,-2.386713028E-1
1.685107524E1,-2.705693245E-2,-1.905068755E-3,-2.290725708E-1
1.686107527E1,-3.192567825E-2,-4.369080067E-3,-2.410306931E-1
1.687107527E1,-4.638767242E-2,2.735048532E-3,-2.410135269E-1
1.688107527E1,-2.451324463E-2,-4.364922643E-3,-2.410650253E-1
1.689107527E1,-4.397666454E-2,4.594773054E-4,-2.410192490E-1
1.690107531E1,-5.573999882E-2,-6.692633033E-3,-2.242908478E-1
1.691107534E1,-2.160358429E-2,-9.136915207E-3,-2.483263016E-1
1.692107534E1,-3.383731842E-2,-9.121865034E-3,-2.339210510E-1
1.693107534E1,-4.351139069E-2,-4.413321614E-3,-2.530593872E-1
1.694107530E1,-3.412973881E-2,7.783889771E-3,-2.434558868E-1
1.695107534E1,-4.840946198E-2,1.728869975E-2,-2.362861633E-1
1.696107534E1,-1.720654964E-2,1.216475666E-2,-2.291088104E-1
1.697107534E1,-4.368388653E-2,-2.638816833E-3,-2.482337952E-1
1.698107534E1,-4.360926151E-2,-3.029361367E-3,-2.362680435E-1
1.699107534E1,-4.120838642E-2,-8.327171206E-3,-2.530202866E-1
1.700107530E1,-4.148733616E-2,-1.311454177E-2,-2.457952499E-1
1.701107534E1,-4.631555080E-2,-1.545497775E-2,-2.577619553E-1
1.702107537E1,-5.539357662E-2,-1.005411148E-3,-2.338953018E-1
1.703107537E1,-3.559577465E-2,-5.484864116E-3,-2.483634949E-1
1.704107537E1,-4.532182217E-2,1.367877424E-2,-2.507352829E-1
1.705107534E1,-3.816843033E-2,-2.949133515E-3,-2.483396530E-1
1.706107537E1,-2.629435062E-2,4.264920950E-3,-2.435359955E-1
1.707107537E1,-4.092836380E-2,-1.465550065E-2,-2.243461609E-1
1.708107537E1,-4.095578194E-2,-5.053818226E-3,-2.267360687E-1
1.709107533E1,-3.160417080E-2,-7.271334529E-3,-2.362823486E-1
1.710107533E1,-6.020212173E-2,9.558171034E-3,-2.386980057E-1
1.711107533E1,-3.836750984E-2,-2.742826939E-3,-2.602834702E-1
1.712107533E1,-3.799724579E-2,2.023324370E-3,-2.435798645E-1
1.713107533E1,-3.261494637E-2,-7.896304131E-3,-2.484531403E-1
1.714107533E1,-3.240382671E-2,-1.029080153E-2,-2.341194153E-1
1.715107530E1,-4.208219051E-2,-1.724466681E-2,-2.460794449E-1
1.716107527E1,-4.229235649E-2,-3.799796104E-4,-2.340774536E-1
1.717107530E1,-3.958988190E-2,-2.440482378E-3,-2.389183044E-1
1.718107530E1,-2.519917488E-2,-1.891490817E-2,-2.413215637E-1
1.719107530E1,-4.432475567E-2,-6.786078215E-3,-2.604827881E-1
1.720107526E1,-4.209768772E-2,-6.773248315E-3,-2.245435715E-1
1.721107526E1,-4.451751709E-2,-1.404331625E-2,-2.604522705E-1
1.722107530E1,-3.702616692E-2,5.721732974E-3,-2.485370636E-1
1.723107530E1,-3.914523125E-2,3.459304571E-3,-2.581596375E-1
1.724107530E1,-3.917849064E-2,1.321008801E-2,-2.581577301E-1
1.725107526E1,-4.871737957E-2,1.026645303E-3,-2.318220139E-1
1.726107530E1,-4.630315304E-2,-6.080925465E-3,-2.246437073E-1
1.727107533E1,-4.154372215E-2,1.137375832E-3,-2.437944412E-1
1.728107533E1,-3.912937641E-2,-1.334214211E-2,-2.366123199E-1
1.729107533E1,-4.103112221E-2,6.231144071E-3,-2.486658096E-1
1.730107533E1,-2.939152718E-2,-3.253594041E-3,-2.246742249E-1
1.731107530E1,-4.415094852E-2,6.323873997E-3,-2.270078659E-1
1.732107530E1,-2.736294270E-2,-5.567684770E-3,-2.461681366E-1
1.733107533E1,-3.206491470E-2,8.639454842E-3,-2.485723495E-1
1.734107533E1,-3.937888145E-2,1.286417246E-3,-2.485504150E-1
1.735107533E1,-3.448426723E-2,-1.544564962E-3,-2.270097733E-1
1.736107530E1,-4.404819012E-2,-1.178307831E-2,-2.341842651E-1
1.737107533E1,-4.192197323E-2,-2.051129937E-3,-2.437229156E-1
1.738107536E1,-5.393600464E-2,1.248905063E-2,-2.437200546E-1
1.739107536E1,-4.871547222E-2,-7.051348686E-3,-2.318077087E-1
1.740107533E1,-3.886604309E-2,1.688385010E-2,-2.414264679E-1
1.741107529E1,-4.362809658E-2,-1.697520912E-2,-2.414245605E-1
1.742107533E1,-4.334223270E-2,-2.183064818E-2,-2.342834473E-1
1.743107533E1,-2.388942242E-2,-1.191177964E-2,-2.391233444E-1
1.744107533E1,-2.656114101E-2,9.707987309E-3,-2.295055389E-1
1.745107533E1,-4.794204235E-2,2.524331212E-3,-2.367143631E-1
1.746107533E1,-2.428460121E-2,-6.906449795E-3,-2.558269501E-1
1.747107529E1,-4.610002041E-2,1.460911334E-2,-2.222661972E-1
1.748107533E1,-2.446305752E-2,2.398788929E-4,-2.510108948E-1
1.749107536E1,-4.161107540E-2,7.199510932E-3,-2.437648773E-1
1.750107536E1,-1.520323753E-2,-5.126297474E-4,-2.605266571E-1
1.751107532E1,-3.244745731E-2,-5.871996284E-3,-2.365016937E-1
1.752107529E1,-4.440522194E-2,-3.256767988E-3,-2.484779358E-1
1.753107532E1,-2.779066563E-2,3.992825747E-3,-2.269086838E-1
1.754107532E1,-4.219472408E-2,-6.679296494E-4,-2.532424927E-1
1.755107532E1,-4.958629608E-2,-5.454316735E-3,-2.460269928E-1
1.756107529E1,-4.243505001E-2,-7.891699672E-3,-2.508106232E-1
1.757107529E1,-3.319382668E-2,4.125326872E-3,-2.435770035E-1
1.758107532E1,-3.796029091E-2,3.566026688E-3,-2.459650040E-1
1.759107532E1,-1.879119873E-2,8.475273848E-3,-2.579412460E-1
1.760107532E1,-5.026745796E-2,-1.819886267E-2,-2.483043671E-1
1.761107532E1,-4.545629025E-2,-1.405614614E-2,-2.459039688E-1
1.762107529E1,-3.818678856E-2,4.146397114E-4,-2.507066727E-1
1.763107539E1,-3.588891029E-2,1.008038223E-2,-2.411165237E-1
1.764107542E1,-2.656233311E-2,-1.166358590E-2,-2.434692383E-1
1.765107542E1,-2.670145035E-2,1.714658737E-2,-2.195072174E-1
1.766107542E1,-2.189660072E-2,-4.464209080E-3,-2.362689972E-1
1.767107539E1,-4.149222374E-2,2.420753241E-3,-2.409849167E-1
1.768107539E1,-4.158985615E-2,4.746526480E-3,-2.337856293E-1
1.769107542E1,-4.664444923E-2,-1.026643813E-2,-2.361288071E-1
1.770107542E1,-3.241932392E-2,-5.376830697E-3,-2.385034561E-1
1.771107542E1,-3.976702690E-2,-5.295917392E-3,-2.289018631E-1
1.772107539E1,-3.979730606E-2,1.382099092E-2,-2.432622910E-1
1.773107542E1,-2.300894260E-2,-5.172505975E-3,-2.265090942E-1
1.774107545E1,-2.561426163E-2,-2.851411700E-3,-2.504186630E-1
1.775107545E1,-4.493665695E-2,1.870289445E-3,-2.527875900E-1
1.776107545E1,-4.502046108E-2,-4.996269941E-3,-2.503852844E-1
1.777107545E1,-4.027056694E-2,-1.470281184E-2,-2.360115051E-1
1.778107542E1,-3.079462051E-2,-9.845137596E-3,-2.503623962E-1
1.779107542E1,-4.524493217E-2,2.096384764E-3,-2.383775711E-1
1.780107545E1,-3.073561192E-2,4.283770919E-3,-2.407903671E-1
1.781107545E1,-3.555703163E-2,-1.000536978E-2,-2.336044312E-1
1.782107545E1,-3.583800793E-2,4.543811083E-3,-2.599010468E-1
1.783107542E1,-4.526185989E-2,-2.674594522E-3,-2.335863113E-1
1.784107545E1,-3.092634678E-2,-2.930265665E-2,-2.455482483E-1
1.785107545E1,-3.820884228E-2,-2.925500274E-3,-2.359580994E-1
1.786107545E1,-3.105580807E-2,-4.974305630E-4,-2.311639786E-1
1.787107542E1,-4.534018040E-2,-2.737760544E-3,-2.359685898E-1
1.788107538E1,-5.249011517E-2,-1.707102358E-2,-2.240018845E-1
1.789107542E1,-3.309202194E-2,-7.224038243E-3,-2.360153198E-1
1.790107542E1,-4.529190063E-2,1.211543381E-2,-2.551374435E-1
1.791107542E1,-3.358769417E-2,-1.942515373E-3,-2.574977875E-1
1.792107542E1,-3.380119801E-2,2.729088068E-3,-2.574625015E-1
1.793107528E1,-4.365551472E-2,-1.653364301E-2,-2.502355576E-1
1.794107525E1,-3.579711914E-2,3.793239594E-4,-2.479467392E-1
1.795107528E1,-4.781186581E-2,-6.897509098E-3,-2.287845612E-1
1.796107528E1,-5.263209343E-2,-6.824836135E-3,-2.287807465E-1
1.797107528E1,-3.291487694E-2,-1.635162532E-2,-2.408390045E-1
1.798107525E1,-3.508877754E-2,-6.440728903E-3,-2.432718277E-1
1.799107521E1,-4.476332664E-2,-1.103949547E-2,-2.408666611E-1
1.800107525E1,-5.193090439E-2,-1.527532935E-3,-2.432613373E-1
1.801107524E1,-3.492677212E-2,1.131340861E-3,-2.433032990E-1
1.802107525E1,-3.777015209E-2,1.080229878E-3,-2.336568832E-1
1.803107521E1,-4.242587090E-2,-8.416891098E-3,-2.360734940E-1
1.804107521E1,-3.790557384E-2,1.299351454E-3,-2.504005432E-1
1.805107524E1,-4.706943035E-2,1.285836101E-3,-2.337026596E-1
1.806107528E1,-4.459524155E-2,6.074681878E-3,-2.552633286E-1
1.807107528E1,-4.946637154E-2,-5.854755640E-3,-2.337036133E-1
1.808107528E1,-2.518892288E-2,1.301839948E-3,-2.529087067E-1
1.809107524E1,-3.972196579E-2,-8.340910077E-3,-2.337274551E-1
1.810107524E1,-5.405950546E-2,1.224353909E-3,-2.457027435E-1
1.811107528E1,-2.307927608E-2,-3.423213959E-3,-2.456827164E-1
1.812107528E1,-2.090275288E-2,-1.343026757E-2,-2.456426620E-1
1.813107528E1,-3.045237064E-2,8.027195930E-3,-2.336740494E-1
1.814107524E1,-2.839744091E-2,1.040321589E-2,-2.503814697E-1
1.815107528E1,-4.078090191E-2,3.382861614E-4,-2.383384705E-1
1.816107531E1,-5.529356003E-2,-9.680479765E-3,-2.526750565E-1
1.817107531E1,-4.109418392E-2,9.404048324E-3,-2.598304749E-1
1.818107531E1,-4.829609394E-2,-7.762894034E-3,-2.358789444E-1
1.819107527E1,-4.307627678E-2,-3.181843460E-2,-2.550964355E-1
1.820107531E1,-4.060208797E-2,-1.471675932E-2,-2.455377579E-1
1.821107531E1,-4.051899910E-2,6.870284677E-3,-2.479448318E-1
1.822107531E1,-4.049420357E-2,-3.120303154E-5,-2.264041901E-1
1.823107531E1,-3.035819530E-2,-2.323091030E-5,-2.264909744E-1
1.824107531E1,-4.259836674E-2,-7.226154208E-3,-2.479972839E-1
1.825107527E1,-4.036998749E-2,-9.615719318E-3,-2.431840897E-1
1.826107531E1,-4.240858555E-2,1.213201880E-2,-2.384529114E-1
1.827107534E1,-5.178916454E-2,7.216572762E-3,-2.408752441E-1
1.828107534E1,-3.711163998E-2,-9.851828218E-3,-2.409172058E-1
1.829107534E1,-4.695916176E-2,-2.579063177E-3,-2.432718277E-1
1.830107530E1,-3.469443321E-2,-1.237311959E-2,-2.481012344E-1
1.831107534E1,-2.275180817E-2,-2.875179052E-4,-2.433099747E-1
1.832107534E1,-3.254294395E-2,6.864547729E-3,-2.432765961E-1
1.833107534E1,-2.562820911E-2,-1.694791019E-2,-2.623929977E-1
1.834107530E1,-4.493856430E-2,6.371736526E-5,-2.527961731E-1
1.835107530E1,-5.244636536E-2,-7.008448243E-3,-2.503547668E-1
1.836107530E1,-4.536724091E-2,-2.138435841E-3,-2.407636642E-1
1.837107530E1,-4.791128635E-2,2.665162086E-3,-2.503175735E-1
1.838107530E1,-4.752886295E-2,-9.448945522E-3,-2.120647430E-1
1.839107530E1,-4.208815098E-2,-1.189501584E-2,-2.480773926E-1
1.840107527E1,-2.730834484E-2,-9.356841445E-3,-2.481422424E-1
1.841107524E1,-3.702616692E-2,1.450031996E-4,-2.457265854E-1
1.842107527E1,-3.492057323E-2,-6.700888276E-3,-2.337169647E-1
1.843107527E1,-4.421365261E-2,5.360394716E-4,-2.313652039E-1
1.844107527E1,-5.172240734E-2,-1.739129424E-3,-2.193470001E-1
1.845107524E1,-2.502620220E-2,-8.763983846E-3,-2.648954391E-1
1.846107524E1,-4.181420803E-2,3.064602613E-3,-2.385511398E-1
1.847107527E1,-5.119860172E-2,-1.096069813E-2,-2.481632233E-1
1.848107527E1,-4.086542130E-2,-8.430078626E-3,-2.626466751E-1
1.849107527E1,-4.531478882E-2,-8.031278849E-4,-2.507343292E-1
1.850107523E1,-5.202507973E-2,-5.602389574E-3,-2.412300110E-1
1.851107527E1,-3.541994095E-2,6.429597735E-3,-2.651491165E-1
1.852107530E1,-4.036474228E-2,1.360577345E-2,-2.507600784E-1
1.853107533E1,-1.643967628E-2,-1.067003608E-2,-2.292041779E-1
1.854107533E1,-3.814148903E-2,2.067451179E-2,-2.411556244E-1
1.855107533E1,-3.820526600E-2,1.053100824E-2,-2.483186722E-1
1.856107530E1,-4.320514202E-2,3.834068775E-4,-2.386999130E-1
1.857107530E1,-4.802465439E-2,-2.297759056E-3,-2.482671738E-1
1.858107533E1,-3.579664230E-2,-1.223824918E-2,-2.147798538E-1
1.859107533E1,-3.601527214E-2,-1.831054688E-4,-2.362976074E-1
1.860107533E1,-3.849256039E-2,-2.125501633E-4,-2.362842560E-1
1.861107530E1,-3.594624996E-2,-5.112051964E-3,-2.315158844E-1
1.862107533E1,-3.862166405E-2,-1.361221075E-4,-2.338714600E-1
1.863107536E1,-4.318201542E-2,-1.707220078E-2,-2.434797287E-1
1.864107536E1,-2.173137665E-2,-1.234918833E-2,-2.434635162E-1
1.865107533E1,-2.662062645E-2,-7.437497377E-3,-2.506332397E-1
1.866107530E1,-3.640758991E-2,-7.505372167E-3,-2.505998611E-1
1.867107533E1,-2.464795113E-2,-5.823373795E-5,-2.481784821E-1
1.868107533E1,-3.420317173E-2,-1.420098543E-2,-2.146654129E-1
1.869107533E1,-4.627382755E-2,-1.400744915E-2,-2.481737137E-1
1.870107533E1,-4.138886929E-2,-1.391859353E-2,-2.242479324E-1
1.871107533E1,-4.380941391E-2,1.038357615E-3,-2.386188507E-1
1.872107530E1,-4.640650749E-2,8.236169815E-3,-2.409830093E-1
1.873107533E1,-3.166604042E-2,5.863741040E-3,-2.362518311E-1
1.874107536E1,-3.923869133E-2,-1.347646117E-3,-2.553462982E-1
1.875107536E1,-3.676295280E-2,-1.334737241E-2,-2.385978699E-1
1.876107533E1,-4.434466362E-2,1.066744328E-3,-2.337493896E-1
1.877107529E1,-2.955830097E-2,-1.494362950E-3,-2.314157486E-1
1.878107533E1,-3.664171696E-2,-1.828271151E-2,-2.242479324E-1
1.879107533E1,-4.865825176E-2,1.285061240E-2,-2.242422104E-1
1.880107533E1,-3.417742252E-2,-6.309658289E-3,-2.410192490E-1
1.881107529E1,-4.395675659E-2,5.755826831E-3,-2.409896851E-1
1.882107529E1,-4.107677937E-2,-8.729070425E-3,-2.410621643E-1
1.883107532E1,-4.752802849E-2,-8.620053530E-3,-2.339916229E-1
1.884107533E1,-4.459273815E-2,1.225993037E-3,-2.245016098E-1
1.885107532E1,-3.751158714E-2,8.462592959E-3,-2.292757034E-1
1.886107532E1,-2.963757515E-2,-1.446694136E-3,-2.245864868E-1
1.887107529E1,-4.655647278E-2,-1.331941783E-2,-2.461128235E-1
1.888107526E1,-3.421700001E-2,-2.050517499E-2,-2.318029404E-1
1.889112850E1,-2.712380886E-2,-1.561875641E-2,-2.389736176E-1
1.890112850E1,-5.332493782E-2,-5.832105875E-3,-2.294206619E-1
1.891112850E1,-5.112826824E-2,-7.990628481E-3,-2.389717102E-1
1.892112847E1,-3.872764111E-2,-1.476790011E-2,-2.438316345E-1
1.893112846E1,-3.588259220E-2,-7.133290172E-3,-2.199659348E-1
1.894112850E1,-4.741978645E-2,-9.160727262E-3,-2.320089340E-1
1.895112850E1,-4.240691662E-2,-1.111021638E-2,-2.440223694E-1
1.896112850E1,-4.219591618E-2,-1.616671681E-3,-2.416591644E-1
1.897112846E1,-2.792870998E-2,-1.125726104E-2,-2.272768021E-1
1.898112850E1,-4.203283787E-2,3.453060985E-3,-2.321100235E-1
1.899112853E1,-3.506457806E-2,-1.373261213E-3,-2.272891998E-1
1.900112853E1,-3.938174248E-2,-1.288428903E-3,-2.297563553E-1
1.901112853E1,-2.749681473E-2,-1.582574844E-2,-2.297401428E-1
1.902112853E1,-2.262616158E-2,1.792031527E-2,-2.441215515E-1
1.903112850E1,-3.241550922E-2,5.471706390E-3,-2.321100235E-1
1.904112850E1,-2.307403088E-2,2.748385072E-3,-2.368583679E-1
1.905112853E1,-3.747487068E-2,-4.350453615E-3,-2.368545532E-1
1.906112853E1,-3.281617165E-2,4.802063107E-3,-2.440099716E-1
1.907112853E1,-3.518450260E-2,-6.331503391E-5,-2.368297577E-1
1.908112850E1,-3.813672066E-2,-5.699396133E-4,-2.415246964E-1
1.909112853E1,-5.488562584E-2,-5.463123322E-3,-2.415256500E-1
1.910112853E1,-3.826653957E-2,-3.066509962E-3,-2.367153168E-1
1.911112853E1,-3.113150597E-2,4.154965281E-3,-2.391023636E-1
1.912112849E1,-2.883112431E-2,6.452128291E-3,-2.319040298E-1
1.913112843E1,-4.070746899E-2,1.761198044E-3,-2.223424911E-1
1.914112846E1,-3.606009483E-2,-1.547071338E-2,-2.366800308E-1
1.915112846E1,-4.082536697E-2,3.786459565E-3,-2.151355743E-1
1.916112846E1,-4.525661469E-2,-1.318976283E-3,-2.367334366E-1
1.917112846E1,-3.545773029E-2,-1.422137022E-3,-2.271881104E-1
1.918112849E1,-3.071236610E-2,-1.570835710E-2,-2.343654633E-1
1.919112846E1,-2.601253986E-2,-3.558680415E-3,-2.367506027E-1
1.920112849E1,-3.567683697E-2,-1.304925978E-2,-2.056131363E-1
1.921112849E1,-4.290676117E-2,-3.442183137E-3,-2.319421768E-1
1.922112849E1,-3.580844402E-2,-9.856075048E-4,-2.391138077E-1
1.923112846E1,-3.070735931E-2,1.117102802E-2,-2.176160812E-1
1.924112842E1,-4.045224190E-2,-7.854849100E-4,-2.487154007E-1
1.925112846E1,-4.047441483E-2,-1.254497468E-2,-2.271671295E-1
1.926112846E1,-5.254697800E-2,1.950144768E-3,-2.295494080E-1
1.927112846E1,-2.586781979E-2,6.650939584E-3,-2.295999527E-1
1.928112842E1,-4.499804974E-2,6.670743227E-3,-2.272090912E-1
1.929112842E1,-3.988778591E-2,8.670791984E-3,-2.224626541E-1
1.930112846E1,-2.536499500E-2,-1.477301121E-3,-2.416315079E-1
1.931112846E1,-4.228067398E-2,-8.587837219E-3,-2.344264984E-1
1.932112846E1,-3.273117542E-2,-1.394122839E-3,-2.224512100E-1
1.933112846E1,-3.762018681E-2,-1.092481613E-2,-2.391958237E-1
1.934112842E1,-2.790117264E-2,5.655065179E-3,-2.344264984E-1
1.935112842E1,-3.272211552E-2,-3.708675504E-3,-2.272415161E-1
1.936112846E1,-3.724384308E-2,-1.426935196E-3,-2.057323456E-1
1.937112846E1,-4.678249359E-2,-1.375719905E-2,-2.320690155E-1
1.938112846E1,-3.736257553E-2,6.068348885E-4,-2.344398499E-1
1.939112842E1,-3.460419178E-2,-4.398703575E-3,-2.297019958E-1
1.940112845E1,-3.436744213E-2,-6.793752313E-3,-2.441034317E-1
1.941112852E1,-3.684723377E-2,-1.383128762E-2,-2.297277451E-1
1.942112852E1,-1.541388035E-2,-4.068642855E-3,-2.321071625E-1
1.943112852E1,-4.410684109E-2,-4.018813372E-3,-2.225370407E-1
