"Time (s)","Acceleration x (m/s^2)","Acceleration y (m/s^2)","Acceleration z (m/s^2)"
0.000000000E0,9.672870040E-1,9.737515450E0,-7.015225291E-1
1.000668800E-1,1.034326673E0,9.802161217E0,-6.608198285E-1
2.001349280E-1,8.523618579E-1,9.816526413E0,-7.350423932E-1
3.002019750E-1,8.715160489E-1,9.821314812E0,-6.225114465E-1
4.002699570E-1,8.643332124E-1,9.809344292E0,-6.440598965E-1
5.003371380E-1,9.098244309E-1,9.792584419E0,-5.698373914E-1
6.004002200E-1,8.619389534E-1,9.830892563E0,-6.440598965E-1
7.004705660E-1,8.236305118E-1,9.720755577E0,-5.339232683E-1
8.005368140E-1,9.337671995E-1,9.881172180E0,-3.328042030E-1
9.006019950E-1,8.475732803E-1,9.806949615E0,-4.692778587E-1
1.000671076E0,7.853221297E-1,9.850046158E0,-5.387118459E-1
1.100738421E0,8.308133483E-1,9.883566856E0,-5.363175869E-1
1.200799502E0,8.116591573E-1,9.838075638E0,-4.309694767E-1
1.300866349E0,8.044763207E-1,9.847652435E0,-4.285751879E-1
1.400943797E0,7.230709791E-1,9.833286285E0,-4.022381604E-1
1.501012179E0,7.565908432E-1,9.835680962E0,-3.328042030E-1
1.601075760E0,8.691217303E-1,9.847652435E0,-3.639297783E-1
1.701141077E0,7.948992252E-1,9.826104164E0,-3.495641351E-1
1.801207724E0,7.350423932E-1,9.833286285E0,-4.237866402E-1
1.901274972E0,7.901107073E-1,9.852440834E0,-3.256213665E-1
2.001341954E0,8.164477348E-1,9.852440834E0,-2.777358890E-1
2.101408804E0,8.595446348E-1,9.826104164E0,-2.849186957E-1
2.201476052E0,8.020820618E-1,9.830892563E0,-2.537931204E-1
2.301543298E0,7.877163887E-1,9.823709488E0,-3.519583941E-1
2.401611113E0,8.212362528E-1,9.859623909E0,-2.657645047E-1
2.501678125E0,8.068706393E-1,9.818921089E0,-3.256213665E-1
2.601748672E0,8.643332124E-1,9.845257759E0,-4.213923812E-1
2.701812287E0,7.996878028E-1,9.809344292E0,-3.591412306E-1
2.801880799E0,7.757450342E-1,9.833286285E0,-3.950553536E-1
2.901953447E0,8.427847624E-1,9.821314812E0,-4.142095447E-1
3.002015393E0,8.595446348E-1,9.823709488E0,-4.405465722E-1
3.102080607E0,9.026415944E-1,9.802161217E0,-3.854782581E-1
3.202154356E0,8.882759809E-1,9.821314812E0,-4.261809289E-1
3.302217137E0,8.044763207E-1,9.852440834E0,-3.759011328E-1
3.402282988E0,8.475732803E-1,9.814132690E0,-4.189980924E-1
3.502349869E0,8.308133483E-1,9.828497887E0,-3.519583941E-1
3.602416215E0,9.529213905E-1,9.830892563E0,-3.088614643E-1
3.702483229E0,9.074301720E-1,9.852440834E0,-4.477293789E-1
3.802552209E0,9.265843630E-1,9.802161217E0,-2.418217510E-1
3.902618223E0,8.379961848E-1,9.859623909E0,-3.040728867E-1
4.002684435E0,8.834874034E-1,9.818921089E0,-2.513988614E-1
4.102751849E0,8.906702399E-1,9.823709488E0,-2.394274771E-1
4.202816929E0,9.601042271E-1,9.845257759E0,-3.328042030E-1
4.304341496E0,1.005595446E0,9.783006668E0,-3.016786277E-1
4.404409044E0,9.696813226E-1,9.821314812E0,-2.226675600E-1
4.504477193E0,1.029538155E0,9.809344292E0,-2.513988614E-1
4.604550106E0,1.012778282E0,9.828497887E0,-2.202732861E-1
4.704610117E0,9.960182905E-1,9.845257759E0,-3.232271075E-1
4.804677399E0,1.089395046E0,9.811738014E0,-2.298503816E-1
4.904745313E0,1.091789365E0,9.790189743E0,-3.950553536E-1
5.004812127E0,1.137280583E0,9.821314812E0,-3.782954216E-1
5.104878872E0,1.106154919E0,9.830892563E0,-4.333637357E-1
5.204949786E0,1.180377483E0,9.804554939E0,-4.142095447E-1
5.305013100E0,1.113337755E0,9.761458397E0,-3.375927508E-1
5.405079778E0,1.223474383E0,9.792584419E0,-4.788549542E-1
5.505147294E0,1.163617611E0,9.771035194E0,-4.644893110E-1
5.605214376E0,1.139674783E0,9.818921089E0,-5.027977228E-1
5.705281260E0,1.204320192E0,9.766246796E0,-5.051919818E-1
5.805348607E0,1.283331275E0,9.792584419E0,-5.913859010E-1
5.905416288E0,1.347976685E0,9.751881599E0,-4.740664065E-1
6.005482901E0,1.328822494E0,9.794978142E0,-5.626545548E-1
6.105549851E0,1.247417212E0,9.735121727E0,-5.482889414E-1
6.205613667E0,1.355159521E0,9.744698524E0,-5.004034638E-1
6.305691548E0,1.350371003E0,9.761458397E0,-5.458946824E-1
6.405751795E0,1.379102230E0,9.761458397E0,-5.913859010E-1
6.505818542E0,1.395862222E0,9.754275322E0,-5.578660369E-1
6.605885722E0,1.424593568E0,9.711178780E0,-6.967339516E-1
6.705952702E0,1.489238977E0,9.694418907E0,-5.339232683E-1
6.806019483E0,1.362342358E0,9.747093201E0,-6.703969240E-1
6.906087632E0,1.537124395E0,9.715967178E0,-6.344828010E-1
7.006153981E0,1.403045058E0,9.804554939E0,-5.075862408E-1
7.106220993E0,1.491633177E0,9.723150253E0,-6.799740195E-1
7.206285540E0,1.527547359E0,9.684841156E0,-6.751855016E-1
7.306356321E0,1.556278586E0,9.718361855E0,-8.451790214E-1
7.406422768E0,1.594586968E0,9.694418907E0,-7.541965842E-1
7.506491948E0,1.788523316E0,9.651321411E0,-1.017566800E0
7.606556994E0,1.747820616E0,9.634561539E0,-9.361614585E-1
7.706624139E0,1.893871427E0,9.624984741E0,-9.840469360E-1
7.806691752E0,1.685569525E0,9.651321411E0,-8.284190893E-1
7.906758734E0,1.774157643E0,9.577098846E0,-8.691217303E-1
8.006825815E0,1.891477108E0,9.675264359E0,-1.051086664E0
8.106892397E0,1.750214934E0,9.723150253E0,-8.236305118E-1
8.206957212E0,1.743032098E0,9.682447433E0,-8.284190893E-1
8.307027492E0,1.819648862E0,9.672870636E0,-8.523618579E-1
8.407099172E0,1.769369125E0,9.680052757E0,-8.044763207E-1
8.507160719E0,1.690358043E0,9.696812630E0,-1.673598051E0
8.607228102E0,1.834014535E0,9.538790703E0,-5.075862408E-1
8.707294416E0,1.482056141E0,9.761458397E0,-8.475732803E-1
8.807363231E0,-9.984126091E-1,1.076465988E1,9.553156495E-1
8.907429979E0,1.836408734E0,9.689630508E0,-5.411061049E-1
9.007497991E0,1.620923996E0,9.715967178E0,-5.075862408E-1
9.107563740E0,1.630501151E0,9.718361855E0,-4.405465722E-1
9.207627286E0,1.690358043E0,9.680052757E0,-5.123748183E-1
9.307697966E0,1.575432777E0,9.696812630E0,-4.788549542E-1
9.407766080E0,1.683175206E0,9.747093201E0,-5.722316504E-1
9.507832895E0,1.565855742E0,9.699207306E0,-4.453351200E-1
9.607900008E0,1.522758722E0,9.754275322E0,-4.501236677E-1
9.707966687E0,1.565855742E0,9.689630508E0,-3.926610649E-1
9.808034301E0,1.549095750E0,9.663292885E0,-3.328042030E-1
9.908100681E0,1.501210332E0,9.735121727E0,-4.836435020E-1
1.000816846E1,1.529941559E0,9.725543976E0,-4.213923812E-1
1.010823561E1,1.489238977E0,9.718361855E0,-4.213923812E-1
1.020830402E1,1.544307232E0,9.737515450E0,-5.123748183E-1
1.030836944E1,1.575432777E0,9.687235832E0,-5.578660369E-1
1.040843932E1,1.379102230E0,9.809344292E0,-4.932205975E-1
1.050850330E1,1.537124395E0,9.732727051E0,-2.825244367E-1
1.060857155E1,1.347976685E0,9.759063721E0,-4.884320498E-1
1.070863892E1,1.350371003E0,9.785401344E0,-4.237866402E-1
1.080870487E1,1.314456820E0,9.809344292E0,-3.184385598E-1
1.090877172E1,1.336005330E0,9.766246796E0,-2.466102988E-1
1.100883877E1,1.297696948E0,9.778218269E0,-3.902668059E-1
1.110890765E1,1.156434774E0,9.818921089E0,-2.921015322E-1
1.120897036E1,1.223474383E0,9.763853073E0,-2.154847383E-1
1.130904107E1,1.273754239E0,9.802161217E0,-4.477293789E-1
1.140910739E1,1.101366401E0,9.785401344E0,-2.418217510E-1
1.150917507E1,1.230657220E0,9.799766541E0,-1.987248063E-1
1.160924611E1,1.156434774E0,9.811738014E0,-2.992843390E-1
1.170935730E1,1.039115310E0,9.864412308E0,-2.921015322E-1
1.180942394E1,1.144463301E0,9.775823593E0,-2.035133541E-1
1.190949062E1,1.067846537E0,9.778218269E0,-1.795706153E-1
1.200955777E1,1.101366401E0,9.826104164E0,-2.705530524E-1
1.210963009E1,1.084606528E0,9.828497887E0,-2.657645047E-1
1.220968900E1,1.041509509E0,9.818921089E0,-1.867534369E-1
1.230975925E1,1.048692346E0,9.802161217E0,-3.136500120E-1
1.240982636E1,1.051086664E0,9.759063721E0,-2.633702159E-1
1.250989344E1,1.029538155E0,9.830892563E0,-3.280156553E-1
1.260995999E1,1.077423692E0,9.799766541E0,-2.921015322E-1
1.271002700E1,1.043903828E0,9.818921089E0,-3.639297783E-1
1.281009455E1,1.029538155E0,9.814132690E0,-4.213923812E-1
1.291016120E1,9.409499764E-1,9.794978142E0,-3.519583941E-1
1.301023454E1,1.015172482E0,9.838075638E0,-4.620950520E-1
1.311029702E1,8.739103079E-1,9.838075638E0,-3.064671755E-1
1.321035854E1,1.000806928E0,9.806949615E0,-4.333637357E-1
1.331043055E1,1.101366401E0,9.811738014E0,-5.435003638E-1
1.341049700E1,1.034326673E0,9.785401344E0,-2.705530524E-1
1.351056398E1,9.433442950E-1,9.847652435E0,-3.782954216E-1
1.361063132E1,9.241901040E-1,9.804554939E0,-3.399870098E-1
1.371069831E1,9.002473354E-1,9.838075638E0,-3.399870098E-1
1.381076549E1,9.792584181E-1,9.799766541E0,-3.232271075E-1
1.391083290E1,9.720755816E-1,9.806949615E0,-2.992843390E-1
1.401089941E1,9.241901040E-1,9.818921089E0,-2.202732861E-1
1.411096620E1,8.930644989E-1,9.845257759E0,-2.873129845E-1
1.421103168E1,9.337671995E-1,9.852440834E0,-2.992843390E-1
1.431110106E1,9.912297726E-1,9.797372818E0,-2.897072434E-1
1.441117341E1,9.529213905E-1,9.787795067E0,-2.178790122E-1
1.451123452E1,9.241901040E-1,9.809344292E0,-3.351984620E-1
1.461130307E1,1.036720991E0,9.797372818E0,-2.178790122E-1
1.471137009E1,9.624984860E-1,9.835680962E0,-2.729473412E-1
1.481143630E1,7.709565163E-1,9.823709488E0,-3.088614643E-1
1.491150418E1,9.361614585E-1,9.814132690E0,-2.178790122E-1
1.501157093E1,8.978530765E-1,9.840469360E0,-2.130904645E-1
1.511163794E1,9.960182905E-1,9.826104164E0,-3.615354896E-1
1.521170692E1,9.481328130E-1,9.842864037E0,-3.639297783E-1
1.531177230E1,8.619389534E-1,9.806949615E0,-2.609759569E-1
1.541183922E1,7.901107073E-1,9.828497887E0,-5.339232683E-1
1.551190653E1,8.739103079E-1,9.828497887E0,-4.549122155E-1
1.561197354E1,1.003201127E0,9.814132690E0,-2.968900800E-1
1.571204119E1,8.978530765E-1,9.802161217E0,-3.759011328E-1
1.581210760E1,7.948992252E-1,9.838075638E0,-4.189980924E-1
1.591217588E1,5.195576549E-1,9.885960579E0,-4.692778587E-1
1.601224280E1,6.488484740E-1,9.833286285E0,-2.154847383E-1
1.611230944E1,7.302538157E-1,9.802161217E0,-1.819648892E-1
1.621237136E1,7.015225291E-1,9.876383781E0,-2.705530524E-1
1.631244857E1,9.744698405E-1,9.852440834E0,-2.202732861E-1
1.641251158E1,7.446194887E-1,9.833286285E0,-2.633702159E-1
1.651257950E1,6.991282701E-1,9.864412308E0,-2.873129845E-1
1.661264554E1,6.919454336E-1,9.878777504E0,-3.615354896E-1
1.671271553E1,8.523618579E-1,9.847652435E0,-3.136500120E-1
1.681277987E1,7.925049663E-1,9.845257759E0,-2.106961906E-1
1.691284679E1,8.332076073E-1,9.878777504E0,-3.088614643E-1
1.701291333E1,8.188419938E-1,9.845257759E0,-1.867534369E-1
1.711298038E1,8.284190893E-1,9.818921089E0,-1.675992310E-1
1.721304399E1,8.427847624E-1,9.818921089E0,-2.154847383E-1
1.731311454E1,8.571503758E-1,9.818921089E0,-2.681587934E-1
1.741318162E1,7.948992252E-1,9.847652435E0,-2.729473412E-1
1.751324887E1,8.715160489E-1,9.811738014E0,-2.753416002E-1
1.761331605E1,8.571503758E-1,9.809344292E0,-2.633702159E-1
1.771338250E1,8.763045669E-1,9.869200706E0,-3.902668059E-1
1.781345364E1,8.906702399E-1,9.850046158E0,-3.687183261E-1
1.791351762E1,9.098244309E-1,9.814132690E0,-4.189980924E-1
1.801358467E1,9.577099085E-1,9.840469360E0,-3.064671755E-1
1.811365258E1,9.361614585E-1,9.838075638E0,-3.567469418E-1
1.821371886E1,8.427847624E-1,9.828497887E0,-2.657645047E-1
1.831378555E1,8.834874034E-1,9.806949615E0,-3.064671755E-1
1.841385303E1,1.003201127E0,9.792584419E0,-3.902668059E-1
1.851392004E1,8.882759809E-1,9.840469360E0,-4.309694767E-1
1.861398679E1,9.170072675E-1,9.845257759E0,-3.399870098E-1
1.871405520E1,1.012778282E0,9.794978142E0,-3.304099143E-1
1.881412078E1,9.098244309E-1,9.828497887E0,-3.471698463E-1
1.891418980E1,9.960182905E-1,9.809344292E0,-2.059076279E-1
1.901425601E1,9.457385540E-1,9.830892563E0,-3.064671755E-1
1.911441741E1,1.031932473E0,9.811738014E0,-3.016786277E-1
1.921447960E1,9.936240315E-1,9.804554939E0,-3.639297783E-1
1.931455174E1,9.601042271E-1,9.799766541E0,-2.513988614E-1
1.941461822E1,1.036720991E0,9.778218269E0,-3.064671755E-1
1.951468597E1,1.003201127E0,9.818921089E0,-3.591412306E-1
1.961475312E1,9.744698405E-1,9.845257759E0,-4.213923812E-1
1.971482023E1,1.003201127E0,9.821314812E0,-3.735068738E-1
1.981488738E1,9.864411950E-1,9.809344292E0,-2.705530524E-1
1.991495602E1,1.015172482E0,9.840469360E0,-3.040728867E-1
2.001502160E1,1.058269501E0,9.783006668E0,-2.633702159E-1
2.011508868E1,9.864411950E-1,9.787795067E0,-2.657645047E-1
2.021515216E1,1.058269501E0,9.809344292E0,-3.208328187E-1
2.031522314E1,1.029538155E0,9.797372818E0,-4.980091453E-1
2.041529005E1,1.070240855E0,9.802161217E0,-2.968900800E-1
2.051535807E1,1.027143836E0,9.797372818E0,-3.304099143E-1
2.061542518E1,1.051086664E0,9.792584419E0,-3.471698463E-1
2.071549202E1,1.041509509E0,9.811738014E0,-4.453351200E-1
2.081555861E1,1.055875182E0,9.799766541E0,-3.926610649E-1
2.091562592E1,1.087000728E0,9.806949615E0,-3.735068738E-1
2.101569290E1,1.115732074E0,9.814132690E0,-4.764606953E-1
2.111575971E1,1.125309110E0,9.787795067E0,-3.160442710E-1
2.121582133E1,1.110943556E0,9.785401344E0,-3.591412306E-1
2.131589357E1,1.132491946E0,9.816526413E0,-4.836435020E-1
2.141596182E1,1.149251938E0,9.799766541E0,-4.094209969E-1
2.151602990E1,1.118126392E0,9.809344292E0,-3.663240373E-1
2.161609589E1,1.127703428E0,9.794978142E0,-4.405465722E-1
2.171616273E1,1.142069101E0,9.797372818E0,-4.118152559E-1
2.181623582E1,1.122914910E0,9.799766541E0,-3.663240373E-1
2.191630296E1,1.197137356E0,9.792584419E0,-4.357580245E-1
2.201637071E1,1.134886265E0,9.766246796E0,-4.118152559E-1
2.211643109E1,1.206714511E0,9.787795067E0,-4.932205975E-1
2.221649284E1,1.163617611E0,9.773429871E0,-3.495641351E-1
2.231656549E1,1.187560320E0,9.806949615E0,-4.142095447E-1
2.241663220E1,1.170800328E0,9.850046158E0,-2.849186957E-1
2.251670045E1,1.206714511E0,9.821314812E0,-4.333637357E-1
2.261676653E1,1.185166001E0,9.794978142E0,-4.189980924E-1
2.271683995E1,1.154040456E0,9.766246796E0,-3.232271075E-1
2.281690126E1,1.206714511E0,9.787795067E0,-4.357580245E-1
2.291696794E1,1.209108829E0,9.811738014E0,-4.573064744E-1
2.301703582E1,1.201925993E0,9.737515450E0,-5.147690773E-1
2.311710264E1,1.137280583E0,9.780612946E0,-4.764606953E-1
2.321716369E1,1.256994247E0,9.775823593E0,-5.195576549E-1
2.331723694E1,1.225868702E0,9.797372818E0,-5.171633363E-1
2.341730265E1,1.154040456E0,9.773429871E0,-4.932205975E-1
2.351737070E1,1.228263021E0,9.773429871E0,-5.027977228E-1
2.361743791E1,1.189954638E0,9.773429871E0,-5.195576549E-1
2.371750569E1,1.209108829E0,9.792584419E0,-5.865973234E-1
2.381757224E1,1.204320192E0,9.794978142E0,-4.525179267E-1
2.391763959E1,1.192348838E0,9.749486923E0,-4.980091453E-1
2.401770753E1,1.199531674E0,9.780612946E0,-4.022381604E-1
2.411777421E1,1.223474383E0,9.783006668E0,-4.812492430E-1
2.421783643E1,1.158828974E0,9.830892563E0,-4.549122155E-1
2.431791461E1,1.185166001E0,9.761458397E0,-4.213923812E-1
2.441797545E1,1.185166001E0,9.759063721E0,-3.998439014E-1
2.451804403E1,1.182771802E0,9.799766541E0,-4.812492430E-1
2.461811051E1,1.182771802E0,9.766246796E0,-5.099805593E-1
2.471817636E1,1.163617611E0,9.780612946E0,-4.285751879E-1
2.481824727E1,1.149251938E0,9.806949615E0,-4.022381604E-1
2.491831209E1,1.223474383E0,9.773429871E0,-4.381522834E-1
2.501837780E1,1.204320192E0,9.783006668E0,-3.950553536E-1
2.511844438E1,1.132491946E0,9.826104164E0,-3.830839694E-1
2.521851199E1,1.098972082E0,9.816526413E0,-3.735068738E-1
2.531857994E1,1.211503029E0,9.778218269E0,-4.189980924E-1
2.541864912E1,1.192348838E0,9.759063721E0,-3.543526828E-1
2.551871310E1,1.087000728E0,9.814132690E0,-4.788549542E-1
2.561878092E1,1.187560320E0,9.797372818E0,-3.878725171E-1
2.571884776E1,1.185166001E0,9.768641472E0,-3.830839694E-1
2.581891491E1,1.166011810E0,9.763853073E0,-3.304099143E-1
2.591898229E1,1.158828974E0,9.792584419E0,-3.519583941E-1
2.601904934E1,1.122914910E0,9.806949615E0,-3.950553536E-1
2.611911672E1,1.166011810E0,9.802161217E0,-3.950553536E-1
2.621917753E1,1.120520592E0,9.814132690E0,-4.213923812E-1
2.631925104E1,1.132491946E0,9.771035194E0,-4.094209969E-1
2.641931819E1,1.170800328E0,9.814132690E0,-4.573064744E-1
2.651943278E1,1.170800328E0,9.804554939E0,-3.926610649E-1
2.661949939E1,1.118126392E0,9.797372818E0,-4.716721475E-1
2.671956650E1,1.168406129E0,9.811738014E0,-3.663240373E-1
2.681963368E1,1.146857619E0,9.826104164E0,-4.453351200E-1
2.691970157E1,1.113337755E0,9.804554939E0,-4.237866402E-1
2.701976781E1,1.103760719E0,9.821314812E0,-4.285751879E-1
2.711983539E1,1.170800328E0,9.811738014E0,-3.423812985E-1
2.721989718E1,1.063058019E0,9.850046158E0,-4.573064744E-1
2.731996969E1,1.137280583E0,9.799766541E0,-4.956148863E-1
2.742003714E1,1.079817891E0,9.799766541E0,-3.735068738E-1
2.752010352E1,1.134886265E0,9.816526413E0,-4.094209969E-1
2.762017013E1,1.142069101E0,9.799766541E0,-3.232271075E-1
2.772023845E1,1.034326673E0,9.842864037E0,-3.782954216E-1
2.782030493E1,1.156434774E0,9.821314812E0,-2.968900800E-1
2.792037201E1,1.058269501E0,9.802161217E0,-3.950553536E-1
2.802043962E1,1.041509509E0,9.809344292E0,-3.280156553E-1
2.812050623E1,1.094183564E0,9.804554939E0,-3.016786277E-1
2.822057288E1,1.098972082E0,9.821314812E0,-3.687183261E-1
2.832064012E1,1.072635174E0,9.823709488E0,-3.735068738E-1
2.842070761E1,1.103760719E0,9.806949615E0,-4.094209969E-1
2.852077542E1,1.048692346E0,9.773429871E0,-3.328042030E-1
2.862084500E1,1.003201127E0,9.821314812E0,-3.759011328E-1
2.872090908E1,1.027143836E0,9.809344292E0,-3.184385598E-1
2.882097602E1,1.010383964E0,9.802161217E0,-3.471698463E-1
2.892104380E1,9.744698405E-1,9.845257759E0,-4.477293789E-1
2.902111029E1,8.954587579E-1,9.806949615E0,-5.626545548E-1
2.912117723E1,8.571503758E-1,9.828497887E0,-4.405465722E-1
2.922123961E1,9.146129489E-1,9.859623909E0,-5.267404318E-1
2.932131722E1,8.260248303E-1,9.840469360E0,-4.573064744E-1
2.942137881E1,7.805336118E-1,9.854835510E0,-5.889915824E-1
2.952144588E1,7.134938836E-1,9.862017632E0,-4.764606953E-1
2.962151293E1,7.182824612E-1,9.816526413E0,-4.118152559E-1
2.972158024E1,6.129343510E-1,9.857229233E0,-4.860377908E-1
2.982164726E1,6.273000240E-1,9.873989105E0,-5.363175869E-1
2.992171491E1,5.458946824E-1,9.857229233E0,-4.501236677E-1
3.002178142E1,6.584255695E-1,9.859623909E0,-3.782954216E-1
3.012184830E1,6.680026650E-1,9.818921089E0,-4.836435020E-1
3.022191408E1,6.775797606E-1,9.814132690E0,-4.046324492E-1
3.032198893E1,6.105400920E-1,9.859623909E0,-5.674431324E-1
3.042205017E1,6.081457734E-1,9.838075638E0,-4.956148863E-1
3.052211709E1,7.901107073E-1,9.840469360E0,-3.567469418E-1
3.062218473E1,7.182824612E-1,9.658504486E0,-9.744698405E-1
3.072225135E1,8.379961848E-1,9.924268723E0,-7.470137477E-1
3.082231936E1,8.403904438E-1,9.852440834E0,-7.518022656E-1
3.092238568E1,6.464542150E-1,9.809344292E0,-6.991282701E-1
3.102245252E1,8.092648983E-1,9.847652435E0,-5.339232683E-1
3.112251990E1,8.643332124E-1,9.840469360E0,-6.512427330E-1
3.122258322E1,9.098244309E-1,9.804554939E0,-7.039167881E-1
3.132265380E1,7.877163887E-1,9.826104164E0,-6.129343510E-1
3.142272225E1,8.332076073E-1,9.806949615E0,-6.344828010E-1
3.152278829E1,8.116591573E-1,9.830892563E0,-6.703969240E-1
3.162285551E1,8.882759809E-1,9.830892563E0,-5.746259689E-1
3.172292312E1,8.834874034E-1,9.821314812E0,-5.746259689E-1
3.182298980E1,9.170072675E-1,9.802161217E0,-5.770202279E-1
3.192305662E1,8.691217303E-1,9.794978142E0,-4.908263385E-1
3.202312386E1,8.260248303E-1,9.818921089E0,-4.501236677E-1
3.212319084E1,8.619389534E-1,9.833286285E0,-5.195576549E-1
3.222326419E1,9.074301720E-1,9.797372818E0,-5.027977228E-1
3.232332767E1,9.768640995E-1,9.826104164E0,-6.584255695E-1
3.242339259E1,8.691217303E-1,9.806949615E0,-4.046324492E-1
3.252345950E1,9.002473354E-1,9.816526413E0,-4.644893110E-1
3.262352728E1,9.457385540E-1,9.847652435E0,-6.129343510E-1
3.272359440E1,9.385557175E-1,9.826104164E0,-4.525179267E-1
3.282366138E1,8.523618579E-1,9.850046158E0,-4.620950520E-1
3.292372809E1,8.882759809E-1,9.790189743E0,-3.806896806E-1
3.302379860E1,9.481328130E-1,9.833286285E0,-4.692778587E-1
3.312386282E1,9.840469360E-1,9.821314812E0,-4.836435020E-1
3.322392540E1,9.840469360E-1,9.785401344E0,-5.650488734E-1
3.332400444E1,8.810931444E-1,9.850046158E0,-5.674431324E-1
3.342406369E1,9.864411950E-1,9.857229233E0,-5.219519138E-1
3.352413071E1,9.864411950E-1,9.773429871E0,-4.716721475E-1
3.362419765E1,1.007989645E0,9.823709488E0,-6.081457734E-1
3.372426473E1,9.337671995E-1,9.811738014E0,-5.770202279E-1
3.382448096E1,9.792584181E-1,9.806949615E0,-6.296942830E-1
3.392455544E1,1.019961119E0,9.828497887E0,-6.608198285E-1
3.402461589E1,1.005595446E0,9.759063721E0,-5.339232683E-1
3.412468213E1,1.113337755E0,9.783006668E0,-6.273000240E-1
3.422475082E1,1.113337755E0,9.771035194E0,-5.554717779E-1
3.432481666E1,1.118126392E0,9.811738014E0,-5.842030644E-1
3.442488331E1,1.132491946E0,9.787795067E0,-5.004034638E-1
3.452495089E1,1.134886265E0,9.799766541E0,-5.171633363E-1
3.462501813E1,1.118126392E0,9.797372818E0,-5.578660369E-1
3.472508518E1,1.194743156E0,9.785401344E0,-4.573064744E-1
3.482515233E1,1.240234375E0,9.797372818E0,-5.554717779E-1
3.492521954E1,1.321639657E0,9.780612946E0,-5.626545548E-1
3.502528652E1,1.292908430E0,9.754275322E0,-6.512427330E-1
3.512535736E1,1.292908430E0,9.715967178E0,-4.932205975E-1
3.522542358E1,1.324033976E0,9.790189743E0,-5.770202279E-1
3.532549099E1,1.398256540E0,9.737515450E0,-4.788549542E-1
3.542555507E1,1.347976685E0,9.744698524E0,-5.674431324E-1
3.552562215E1,1.362342358E0,9.751881599E0,-5.411061049E-1
3.562569000E1,1.407833576E0,9.775823593E0,-5.961744189E-1
3.572575638E1,1.405439258E0,9.797372818E0,-6.895511150E-1
3.582582346E1,1.613741279E0,9.735121727E0,-8.068706393E-1
3.592589031E1,1.520364523E0,9.732727051E0,-7.374366522E-1
3.602595732E1,1.577827096E0,9.713572502E0,-7.853221297E-1
3.612602510E1,1.613741279E0,9.718361855E0,-8.571503758E-1
3.622608839E1,1.515576005E0,9.720755577E0,-8.786988258E-1
3.632615970E1,1.608952641E0,9.699207306E0,-8.930644989E-1
3.642622604E1,1.585009933E0,9.687235832E0,-8.140534163E-1
3.652629339E1,1.589798450E0,9.701601982E0,-9.241901040E-1
3.662636200E1,1.666415215E0,9.684841156E0,-9.050358534E-1
3.672642742E1,1.805283189E0,9.651321411E0,-8.834874034E-1
3.682649466E1,1.965699673E0,9.572310448E0,-9.577099085E-1
3.692656161E1,1.982459545E0,9.605830193E0,-9.888355136E-1
3.702662922E1,2.097384691E0,9.572310448E0,-8.571503758E-1
3.712669564E1,2.073441982E0,9.646533012E0,-9.912297726E-1
3.722675975E1,2.004008055E0,9.603436470E0,-8.475732803E-1
3.732683017E1,2.142875910E0,9.624984741E0,-8.403904438E-1
3.742689738E1,2.176395893E0,9.605830193E0,-8.475732803E-1
3.752696496E1,2.310475111E0,9.572310448E0,-8.978530765E-1
3.762703164E1,2.322446585E0,9.514847755E0,-9.313728809E-1
3.772709872E1,2.504411459E0,9.526819229E0,-9.936240315E-1
3.782716676E1,2.370332003E0,9.574705124E0,-9.098244309E-1
3.792723354E1,2.449343204E0,9.522030830E0,-8.475732803E-1
3.802730069E1,2.372726440E0,9.545973778E0,-8.164477348E-1
3.812736621E1,2.415823221E0,9.510059357E0,-7.757450342E-1
3.822743709E1,2.389486313E0,9.505270958E0,-8.308133483E-1
3.832750130E1,2.408640385E0,9.545973778E0,-7.685621977E-1
3.842757042E1,2.363149166E0,9.531607628E0,-8.116591573E-1
3.852763693E1,2.145270348E0,9.591464996E0,5.650488734E-1
3.862770245E1,2.456526041E0,9.340065956E0,-3.208328187E-1
3.872777463E1,2.343995094E0,9.598648071E0,-4.189980924E-1
3.882783821E1,2.200338602E0,9.557945251E0,-5.267404318E-1
3.892790452E1,2.207521439E0,9.620196342E0,-6.488484740E-1
3.902797230E1,2.303292274E0,9.593858719E0,-4.932205975E-1
3.912803802E1,2.126116037E0,9.617801666E0,-4.788549542E-1
3.922810227E1,2.135693073E0,9.634561539E0,-4.836435020E-1
3.932817591E1,2.257801056E0,9.641744614E0,-5.171633363E-1
3.942823973E1,2.061470509E0,9.641744614E0,-5.195576549E-1
3.952830664E1,2.152452946E0,9.579493523E0,-3.256213665E-1
3.962837465E1,1.881899953E0,9.670475960E0,-3.256213665E-1
3.972844603E1,1.963305354E0,9.639349937E0,-1.795706153E-1
3.982850815E1,1.891477108E0,9.641744614E0,-2.537931204E-1
3.992858289E1,1.807677507E0,9.730332375E0,-1.484450400E-1
4.002864264E1,1.841197371E0,9.735121727E0,-1.125309169E-1
4.012871275E1,1.740637779E0,9.701601982E0,-8.619388938E-2
4.022878260E1,1.951334000E0,9.670475960E0,-1.699935049E-1
4.032884391E1,1.695146561E0,9.718361855E0,-1.029538140E-1
4.042891053E1,1.812466025E0,9.718361855E0,-8.858817071E-2
4.052897814E1,1.575432777E0,9.739910126E0,-1.197137386E-1
4.062904569E1,1.695146561E0,9.773429871E0,-2.346389294E-1
4.072911404E1,1.596981287E0,9.692024231E0,7.901106775E-2
4.082917932E1,1.436564922E0,9.742303848E0,9.098244458E-2
4.092924663E1,1.424593568E0,9.783006668E0,3.136500120E-1
4.102931381E1,1.276148438E0,9.794978142E0,2.561874092E-1
4.112938212E1,1.300091267E0,9.771035194E0,4.716721475E-1
4.122941952E1,1.280937076E0,9.797372818E0,3.328042030E-1
4.132948437E1,1.166011810E0,9.761458397E0,4.309694767E-1
4.142955074E1,1.043903828E0,9.838075638E0,2.921015322E-1
4.152961789E1,1.185166001E0,9.811738014E0,3.854782581E-1
4.162968544E1,1.098972082E0,9.845257759E0,2.035133541E-1
4.172975342E1,1.182771802E0,9.833286285E0,2.753416002E-1
4.182981977E1,1.134886265E0,9.802161217E0,2.250618339E-1
4.192988715E1,1.161223292E0,9.771035194E0,3.399870098E-1
4.202995316E1,1.278542757E0,9.847652435E0,1.436564922E-1
4.213002061E1,1.103760719E0,9.794978142E0,1.867534369E-1
4.223008469E1,1.240234375E0,9.773429871E0,2.226675600E-1
4.233015467E1,1.113337755E0,9.830892563E0,2.394274771E-1
4.243022195E1,1.170800328E0,9.826104164E0,3.256213665E-1
4.253028900E1,1.142069101E0,9.802161217E0,2.035133541E-1
4.263035711E1,1.113337755E0,9.794978142E0,2.178790122E-1
4.273042336E1,1.089395046E0,9.787795067E0,3.423812985E-1
4.283049191E1,1.077423692E0,9.823709488E0,1.843591630E-1
4.293055839E1,1.149251938E0,9.816526413E0,2.825244367E-1
4.303062460E1,1.024749637E0,9.821314812E0,3.304099143E-1
4.313069282E1,1.015172482E0,9.840469360E0,3.088614643E-1
4.323076060E1,1.077423692E0,9.830892563E0,2.705530524E-1
4.333082598E1,1.077423692E0,9.838075638E0,2.394274771E-1
4.343089362E1,1.094183564E0,9.785401344E0,2.250618339E-1
4.353096020E1,1.039115310E0,9.862017632E0,1.723877788E-1
4.363102722E1,1.082212210E0,9.809344292E0,2.106961906E-1
4.373109476E1,1.024749637E0,9.823709488E0,3.328042030E-1
4.383116488E1,1.063058019E0,9.857229233E0,1.005595401E-1
4.393122869E1,1.058269501E0,9.842864037E0,1.221080124E-1
4.403129577E1,1.053480864E0,9.811738014E0,2.537931204E-1
4.413136302E1,1.098972082E0,9.842864037E0,8.858817071E-2
4.423142736E1,1.072635174E0,9.830892563E0,3.351984918E-2
4.433149704E1,1.048692346E0,9.816526413E0,2.035133541E-1
4.443156513E1,1.065452337E0,9.871595383E0,-2.873129770E-2
4.453163777E1,1.192348838E0,9.826104164E0,-2.154847234E-2
4.463169869E1,1.043903828E0,9.847652435E0,3.208328187E-1
4.473176567E1,8.499675393E-1,9.826104164E0,6.823683381E-1
4.483183291E1,7.302538157E-1,9.706390381E0,1.225868702E0
4.493189992E1,1.053480864E0,9.847652435E0,8.379961848E-1
4.503196591E1,9.481328130E-1,9.771035194E0,8.379961848E-1
4.513203482E1,1.029538155E0,9.715967178E0,9.792584181E-1
4.523210120E1,9.002473354E-1,9.756669998E0,1.192348838E0
4.533216842E1,8.930644989E-1,9.723150253E0,1.484450340E0
4.543223633E1,8.810931444E-1,9.687235832E0,1.573038578E0
4.553230287E1,9.265843630E-1,9.715967178E0,1.527547359E0
4.563237138E1,8.930644989E-1,9.708784103E0,1.573038578E0
4.573243747E1,9.194015265E-1,9.708784103E0,1.541913033E0
4.583250452E1,9.984126091E-1,9.711178780E0,1.592192769E0
4.593257183E1,9.265843630E-1,9.703995705E0,1.637683988E0
4.603263814E1,9.505270720E-1,9.890748978E0,1.312062621E0
4.613270676E1,8.547561169E-1,9.596253395E0,1.738243461E0
4.623276764E1,9.194015265E-1,9.696812630E0,1.604164124E0
4.633283996E1,9.337671995E-1,9.790189743E0,1.460507631E0
4.643290737E1,9.840469360E-1,9.713572502E0,1.498816013E0
4.653297382E1,9.433442950E-1,9.668081284E0,1.678386688E0
4.663304083E1,9.648927450E-1,9.701601982E0,1.448536277E0
4.673310882E1,9.241901040E-1,9.826104164E0,1.122914910E0
4.683317490E1,9.241901040E-1,9.737515450E0,1.415016413E0
4.693324248E1,8.810931444E-1,9.687235832E0,1.436564922E0
4.703330946E1,8.260248303E-1,9.730332375E0,1.374313712E0
4.713337654E1,1.312062621E0,9.732727051E0,1.043903828E0
4.723344226E1,1.022355318E0,9.737515450E0,1.245022893E0
4.733351103E1,1.127703428E0,9.720755577E0,8.356019258E-1
4.743357772E1,7.877163887E-1,9.897932053E0,6.512427330E-1
4.753364483E1,9.241901040E-1,9.842864037E0,6.129343510E-1
4.763371278E1,8.499675393E-1,9.909903526E0,5.554717779E-1
4.773378006E1,8.379961848E-1,9.864412308E0,3.208328187E-1
4.783384741E1,8.906702399E-1,9.835680962E0,4.237866402E-1
4.793391442E1,1.036720991E0,9.821314812E0,4.836435020E-1
4.803398070E1,9.912297726E-1,9.811738014E0,6.320885420E-1
4.813405132E1,1.000806928E0,9.802161217E0,5.411061049E-1
4.823411173E1,1.036720991E0,9.818921089E0,5.027977228E-1
4.833418221E1,9.146129489E-1,9.845257759E0,6.201171875E-1
4.843424975E1,9.696813226E-1,9.828497887E0,5.243461728E-1
4.853450200E1,8.619389534E-1,9.893143654E0,4.357580245E-1
4.863456952E1,1.098972082E0,9.775823593E0,5.889915824E-1
4.873463593E1,1.089395046E0,9.804554939E0,4.692778587E-1
4.883470371E1,7.901107073E-1,9.931451797E0,1.963305324E-1
4.893477042E1,1.132491946E0,9.723150253E0,6.153286099E-1
4.903483814E1,1.101366401E0,9.768641472E0,6.440598965E-1
4.913490489E1,9.241901040E-1,9.797372818E0,4.860377908E-1
4.923497824E1,8.523618579E-1,9.811738014E0,2.968900800E-1
4.933503958E1,1.046298146E0,9.862017632E0,1.795706153E-1
4.943510630E1,7.901107073E-1,9.845257759E0,4.022381604E-1
4.953517354E1,8.834874034E-1,9.893143654E0,1.556278616E-1
4.963524056E1,7.948992252E-1,9.948211670E0,-1.915419847E-1
4.973530757E1,8.236305118E-1,9.902720451E0,-3.184385598E-1
4.983537495E1,1.065452337E0,9.684841156E0,-7.182824425E-3
4.993544226E1,9.648927450E-1,9.636956215E0,3.615354896E-1
5.003550904E1,1.070240855E0,9.596253395E0,3.782954216E-1
5.013557682E1,6.632141471E-1,9.818921089E0,-8.619388938E-2
5.023563937E1,1.012778282E0,9.957788467E0,1.436564922E-1
5.033571111E1,5.746259689E-1,9.854835510E0,-1.963305324E-1
5.043577819E1,6.464542150E-1,1.000088596E1,-3.399870098E-1
5.053584457E1,5.219519138E-1,9.749486923E0,1.987248063E-1
5.063591192E1,9.050358534E-1,9.857229233E0,1.197137404E-2
5.073597970E1,7.853221297E-1,9.823709488E0,3.351984918E-2
5.083604565E1,6.488484740E-1,1.000806904E1,-4.597007632E-1
5.093611306E1,1.185166001E0,9.653716087E0,-7.422251999E-2
5.103618035E1,5.578660369E-1,9.929058075E0,3.591412306E-2
5.113624876E1,7.015225291E-1,9.833286285E0,-3.351984918E-2
5.123631724E1,9.337671995E-1,9.840469360E0,9.337671846E-2
5.133638238E1,7.470137477E-1,9.869200706E0,-8.858817071E-2
5.143644893E1,8.356019258E-1,9.787795067E0,-4.549122229E-2
5.153651991E1,6.632141471E-1,9.852440834E0,4.788549617E-3
5.163658283E1,7.158881426E-1,9.878777504E0,-5.746259540E-2
5.173664997E1,8.284190893E-1,9.926663399E0,-1.771763414E-1
5.183671745E1,8.164477348E-1,9.809344292E0,-1.005595401E-1
5.193678463E1,7.925049663E-1,9.840469360E0,-9.337671846E-2
5.203685128E1,7.110996246E-1,9.835680962E0,-8.858817071E-2
5.213691839E1,8.092648983E-1,9.806949615E0,-1.580221355E-1
5.223698174E1,9.864411950E-1,9.802161217E0,-3.974496126E-1
5.233705372E1,8.308133483E-1,9.941028595E0,-2.346389294E-1
5.243711990E1,7.877163887E-1,9.883566856E0,-1.867534369E-1
5.253718688E1,8.427847624E-1,9.804554939E0,-2.011190802E-1
5.263725486E1,7.518022656E-1,9.833286285E0,-3.136500120E-1
5.273732134E1,9.026415944E-1,9.814132690E0,-9.337671846E-2
5.283738848E1,8.523618579E-1,9.852440834E0,-6.943397224E-2
5.293745520E1,7.470137477E-1,9.830892563E0,-3.160442710E-1
5.303752268E1,7.302538157E-1,9.828497887E0,-4.166038036E-1
5.313758972E1,1.010383964E0,9.826104164E0,-2.466102988E-1
5.323765774E1,8.451790214E-1,9.811738014E0,-7.901106775E-2
5.333772948E1,8.786988258E-1,9.830892563E0,-2.298503816E-1
5.343779263E1,8.667274714E-1,9.917086601E0,-3.016786277E-1
5.353785835E1,7.422251701E-1,9.778218269E0,-7.661679387E-2
5.363792496E1,9.289786220E-1,9.833286285E0,-1.795706153E-1
5.373799327E1,6.799740195E-1,9.816526413E0,2.394274808E-3
5.383805978E1,8.739103079E-1,9.802161217E0,-1.149251908E-1
5.393812626E1,8.475732803E-1,9.804554939E0,-1.125309169E-1
5.403819968E1,7.972934842E-1,9.823709488E0,-1.221080124E-1
5.413826059E1,7.278595567E-1,9.869200706E0,-3.471698463E-1
5.423832461E1,8.020820618E-1,9.847652435E0,-2.681587934E-1
5.433839576E1,7.901107073E-1,9.790189743E0,-1.723877788E-1
5.443846187E1,8.068706393E-1,9.833286285E0,-1.939362586E-1
5.453852951E1,8.475732803E-1,9.850046158E0,-2.609759569E-1
5.463859639E1,7.589851022E-1,9.862017632E0,-2.418217510E-1
5.473866441E1,8.356019258E-1,9.811738014E0,-1.867534369E-1
5.483873049E1,8.427847624E-1,9.833286285E0,-4.309694469E-2
5.493879777E1,8.212362528E-1,9.828497887E0,-1.364736706E-1
5.503886501E1,7.757450342E-1,9.850046158E0,-2.130904645E-1
5.513893716E1,7.805336118E-1,9.878777504E0,-2.083019018E-1
5.523899668E1,7.805336118E-1,9.826104164E0,-2.322446555E-1
5.533906606E1,8.739103079E-1,9.816526413E0,-1.508393139E-1
5.543913451E1,7.901107073E-1,9.847652435E0,-2.011190802E-1
5.553920099E1,8.308133483E-1,9.835680962E0,-2.561874092E-1
5.563926784E1,7.446194887E-1,9.842864037E0,-2.059076279E-1
5.573933545E1,8.691217303E-1,9.830892563E0,-1.891477108E-1
5.583940310E1,8.739103079E-1,9.806949615E0,-1.747820675E-1
5.593946954E1,6.991282701E-1,9.799766541E0,-1.029538140E-1
5.603964924E1,7.733507752E-1,9.885960579E0,-3.136500120E-1
5.613971676E1,9.816526771E-1,9.814132690E0,-3.399870098E-1
5.623978670E1,8.523618579E-1,9.818921089E0,-2.825244367E-1
5.633985082E1,8.356019258E-1,9.888355255E0,-3.064671755E-1
5.643991850E1,7.661679387E-1,9.818921089E0,-2.729473412E-1
5.653998494E1,7.613793612E-1,9.823709488E0,-3.591412306E-1
5.664005656E1,9.481328130E-1,9.823709488E0,-4.142095447E-1
5.674011924E1,9.098244309E-1,9.845257759E0,-3.782954216E-1
5.684018582E1,9.074301720E-1,9.799766541E0,-3.375927508E-1
5.694025350E1,7.996878028E-1,9.907508850E0,-3.759011328E-1
5.704032088E1,7.182824612E-1,9.854835510E0,-3.830839694E-2
5.714038763E1,8.332076073E-1,9.802161217E0,-1.795706153E-1
5.724045268E1,8.451790214E-1,9.850046158E0,-2.466102988E-1
5.734052156E1,9.074301720E-1,9.847652435E0,-1.891477108E-1
5.744058924E1,8.236305118E-1,9.826104164E0,-9.577099234E-2
5.754065605E1,8.475732803E-1,9.838075638E0,-2.322446555E-1
5.764072203E1,7.661679387E-1,9.859623909E0,-2.729473412E-1
5.774079037E1,8.882759809E-1,9.804554939E0,-1.867534369E-1
5.784085829E1,8.523618579E-1,9.859623909E0,-1.436564922E-1
5.794092464E1,8.499675393E-1,9.850046158E0,-1.292908341E-1
5.804099235E1,7.541965842E-1,9.821314812E0,-1.867534369E-1
5.814106276E1,8.810931444E-1,9.850046158E0,-2.202732861E-1
5.824112591E1,8.379961848E-1,9.847652435E0,-2.442160249E-1
5.834119302E1,7.422251701E-1,9.823709488E0,-1.292908341E-1
5.844125967E1,8.930644989E-1,9.866806030E0,-2.154847383E-1
5.854132878E1,7.996878028E-1,9.809344292E0,-1.987248063E-1
5.864139313E1,9.337671995E-1,9.778218269E0,-8.619388938E-2
5.874146094E1,9.577099085E-1,9.878777504E0,-2.992843390E-1
5.884152879E1,7.541965842E-1,9.840469360E0,-2.753416002E-1
5.894159580E1,7.709565163E-1,9.850046158E0,-2.561874092E-1
5.904166918E1,8.164477348E-1,9.821314812E0,-1.795706153E-1
5.914173006E1,9.265843630E-1,9.842864037E0,-1.292908341E-1
5.924179778E1,8.020820618E-1,9.826104164E0,-9.337671846E-2
5.934187192E1,8.164477348E-1,9.826104164E0,-1.675992459E-2
5.944193180E1,8.332076073E-1,9.826104164E0,-1.723877788E-1
5.954199848E1,8.308133483E-1,9.864412308E0,-3.184385598E-1
5.964207580E1,8.044763207E-1,9.823709488E0,-2.609759569E-1
5.974213421E1,8.260248303E-1,9.842864037E0,-2.370332032E-1
5.984219963E1,7.948992252E-1,9.842864037E0,-2.298503816E-1
5.994226787E1,8.403904438E-1,9.806949615E0,-4.046324492E-1
6.004233422E1,7.853221297E-1,9.850046158E0,-2.729473412E-1
6.014240153E1,8.930644989E-1,9.845257759E0,-2.083019018E-1
6.024246821E1,8.451790214E-1,9.835680962E0,-2.442160249E-1
6.034253536E1,7.877163887E-1,9.838075638E0,-2.130904645E-1
6.044260207E1,8.284190893E-1,9.845257759E0,-1.795706153E-1
6.054267015E1,8.356019258E-1,9.838075638E0,-8.858817071E-2
6.064274126E1,8.356019258E-1,9.792584419E0,-1.963305324E-1
6.074280338E1,9.194015265E-1,9.847652435E0,-2.753416002E-1
6.084287119E1,8.116591573E-1,9.914691925E0,-3.495641351E-1
6.094293957E1,7.063110471E-1,9.768641472E0,-8.858817071E-2
6.104300585E1,8.667274714E-1,9.809344292E0,-1.843591630E-1
6.114307213E1,8.116591573E-1,9.828497887E0,-1.221080124E-1
6.124314051E1,9.241901040E-1,9.823709488E0,-8.858817071E-2
6.134320646E1,8.810931444E-1,9.792584419E0,-1.197137404E-2
6.144327357E1,7.518022656E-1,9.826104164E0,-1.699935049E-1
6.154334165E1,7.805336118E-1,9.878777504E0,-1.963305324E-1
6.164340700E1,7.901107073E-1,9.842864037E0,-2.274561077E-1
6.174347474E1,8.260248303E-1,9.828497887E0,-1.197137386E-1
6.184354343E1,8.379961848E-1,9.842864037E0,-5.506832153E-2
6.194360934E1,8.451790214E-1,9.847652435E0,-1.292908341E-1
6.204367662E1,7.350423932E-1,9.873989105E0,-2.561874092E-1
6.214374380E1,7.925049663E-1,9.871595383E0,-2.418217510E-1
6.224381258E1,7.541965842E-1,9.809344292E0,-8.858817071E-2
6.234387849E1,8.260248303E-1,9.845257759E0,-2.705530524E-1
6.244394484E1,7.829278708E-1,9.850046158E0,-2.681587934E-1
6.254401202E1,8.140534163E-1,9.821314812E0,-2.633702159E-1
6.264407883E1,8.739103079E-1,9.799766541E0,-8.858817071E-2
6.274414601E1,7.661679387E-1,9.845257759E0,-2.322446555E-1
6.284421453E1,7.853221297E-1,9.823709488E0,-9.577099234E-2
6.294428034E1,8.260248303E-1,9.833286285E0,-1.867534369E-1
6.304434785E1,7.661679387E-1,9.847652435E0,-2.130904645E-1
6.314441470E1,8.116591573E-1,9.842864037E0,-1.532335877E-1
6.324448178E1,8.140534163E-1,9.864412308E0,-2.178790122E-1
6.334466411E1,7.446194887E-1,9.811738014E0,-2.873129770E-2
6.344473215E1,8.906702399E-1,9.830892563E0,-2.394274808E-3
6.354479850E1,8.140534163E-1,9.838075638E0,-1.699935049E-1
6.364487001E1,8.715160489E-1,9.833286285E0,-2.513988614E-1
6.374493243E1,8.499675393E-1,9.811738014E0,-8.379961550E-2
6.384500011E1,8.451790214E-1,9.862017632E0,-1.149251908E-1
6.394506709E1,8.571503758E-1,9.888355255E0,-3.088614643E-1
6.404513450E1,7.733507752E-1,9.893143654E0,-4.285751879E-1
6.414520188E1,8.475732803E-1,9.730332375E0,-4.788549617E-3
6.424526846E1,8.930644989E-1,9.823709488E0,-1.795706153E-1
6.434533565E1,8.044763207E-1,9.833286285E0,-2.394274771E-1
6.444540240E1,8.068706393E-1,9.845257759E0,-2.059076279E-1
6.454546991E1,8.451790214E-1,9.845257759E0,-2.681587934E-1
6.464553666E1,7.589851022E-1,9.847652435E0,-1.340793967E-1
6.474560347E1,8.068706393E-1,9.821314812E0,-9.098244458E-2
6.484567128E1,8.475732803E-1,9.840469360E0,-5.027977005E-2
6.494573856E1,9.768640995E-1,9.809344292E0,-8.379961550E-2
6.504580524E1,7.470137477E-1,9.840469360E0,-3.471698463E-1
6.514587272E1,9.816526771E-1,9.850046158E0,-2.992843390E-1
6.524593967E1,8.715160489E-1,9.797372818E0,-9.337671846E-2
6.534600672E1,9.098244309E-1,9.780612946E0,-8.858817071E-2
6.544607397E1,8.020820618E-1,9.897932053E0,-3.232271075E-1
6.554614118E1,7.637736797E-1,9.838075638E0,-3.328042030E-1
6.564620789E1,7.805336118E-1,9.845257759E0,-2.561874092E-1
6.574627537E1,7.853221297E-1,9.833286285E0,-1.436564922E-1
6.584634325E1,8.068706393E-1,9.826104164E0,-3.447755575E-1
6.594640940E1,6.967339516E-1,9.864412308E0,-4.070267081E-1
6.604647671E1,8.092648983E-1,9.821314812E0,-1.819648892E-1
6.614654389E1,7.901107073E-1,9.857229233E0,-2.657645047E-1
6.624661054E1,8.786988258E-1,9.845257759E0,-3.471698463E-1
6.634667805E1,8.547561169E-1,9.828497887E0,-1.340793967E-1
6.644674546E1,6.847625971E-1,9.847652435E0,-3.280156553E-1
6.654681238E1,7.661679387E-1,9.830892563E0,-2.873129845E-1
6.664688019E1,8.595446348E-1,9.866806030E0,-3.351984620E-1
6.674694691E1,8.140534163E-1,9.842864037E0,-2.322446555E-1
6.684701409E1,7.757450342E-1,9.871595383E0,-2.633702159E-1
6.694708057E1,7.685621977E-1,9.881172180E0,-2.202732861E-1
6.704714895E1,8.068706393E-1,9.838075638E0,-2.011190802E-1
6.714721480E1,8.475732803E-1,9.828497887E0,-2.322446555E-1
6.724728188E1,8.044763207E-1,9.811738014E0,-2.609759569E-1
6.734734933E1,7.565908432E-1,9.842864037E0,-2.729473412E-1
6.744741644E1,8.284190893E-1,9.852440834E0,-2.729473412E-1
6.754748342E1,8.020820618E-1,9.804554939E0,-2.609759569E-1
6.764754983E1,7.733507752E-1,9.809344292E0,-1.915419847E-1
6.774761681E1,8.164477348E-1,9.833286285E0,-2.705530524E-1
6.784768733E1,8.403904438E-1,9.854835510E0,-2.298503816E-1
6.794775334E1,7.685621977E-1,9.840469360E0,-2.992843390E-1
6.804781972E1,7.709565163E-1,9.852440834E0,-2.322446555E-1
6.814788670E1,8.379961848E-1,9.862017632E0,-2.106961906E-1
6.824795335E1,7.829278708E-1,9.802161217E0,-1.747820675E-1
6.834801990E1,7.925049663E-1,9.840469360E0,-3.160442710E-1
6.844809515E1,7.925049663E-1,9.826104164E0,-2.729473412E-1
6.854815543E1,7.972934842E-1,9.804554939E0,-1.675992310E-1
6.864822401E1,8.116591573E-1,9.816526413E0,-2.346389294E-1
6.874828962E1,7.446194887E-1,9.845257759E0,-3.543526828E-1
6.884836134E1,7.781392932E-1,9.857229233E0,-2.346389294E-1
6.894842325E1,7.637736797E-1,9.818921089E0,-3.351984620E-1
6.904849076E1,8.068706393E-1,9.818921089E0,-3.184385598E-1
6.914855767E1,8.284190893E-1,9.818921089E0,-3.280156553E-1
6.924862586E1,7.589851022E-1,9.833286285E0,-3.256213665E-1
6.934869141E1,7.901107073E-1,9.850046158E0,-2.921015322E-1
6.944875872E1,7.925049663E-1,9.869200706E0,-2.274561077E-1
6.954882600E1,7.996878028E-1,9.835680962E0,-2.490045726E-1
6.964889272E1,7.565908432E-1,9.828497887E0,-2.944957912E-1
6.974896020E1,8.403904438E-1,9.818921089E0,-3.064671755E-1
6.984902714E1,8.475732803E-1,9.806949615E0,-2.513988614E-1
6.994909496E1,8.044763207E-1,9.821314812E0,-2.537931204E-1
7.004916150E1,8.092648983E-1,9.797372818E0,-2.681587934E-1
7.014923318E1,8.116591573E-1,9.823709488E0,-2.633702159E-1
7.024929549E1,8.308133483E-1,9.845257759E0,-3.016786277E-1
7.034936431E1,7.613793612E-1,9.802161217E0,-1.843591630E-1
7.044944109E1,8.116591573E-1,9.830892563E0,-1.963305324E-1
7.054949684E1,8.475732803E-1,9.857229233E0,-2.825244367E-1
7.064956692E1,8.044763207E-1,9.835680962E0,-2.729473412E-1
7.074968485E1,7.877163887E-1,9.852440834E0,-2.106961906E-1
7.084975336E1,8.044763207E-1,9.859623909E0,-2.130904645E-1
7.094982048E1,8.356019258E-1,9.804554939E0,-1.891477108E-1
7.104988772E1,8.643332124E-1,9.869200706E0,-3.064671755E-1
7.114995414E1,8.092648983E-1,9.835680962E0,-1.939362586E-1
7.125002115E1,8.092648983E-1,9.826104164E0,-2.059076279E-1
7.135008886E1,8.188419938E-1,9.840469360E0,-2.513988614E-1
7.145015518E1,7.350423932E-1,9.866806030E0,-2.298503816E-1
7.155022482E1,8.475732803E-1,9.809344292E0,-2.202732861E-1
7.165029707E1,9.050358534E-1,9.854835510E0,-3.136500120E-1
7.175036425E1,9.265843630E-1,9.797372818E0,-2.537931204E-1
7.185042317E1,6.153286099E-1,9.835680962E0,-2.513988614E-1
7.195049131E1,8.212362528E-1,9.842864037E0,-3.687183261E-1
7.205055756E1,8.499675393E-1,9.821314812E0,-2.777358890E-1
7.215062724E1,8.020820618E-1,9.850046158E0,-3.304099143E-1
7.225069245E1,7.805336118E-1,9.840469360E0,-2.849186957E-1
7.235075980E1,7.853221297E-1,9.823709488E0,-2.921015322E-1
7.245082728E1,8.356019258E-1,9.857229233E0,-3.519583941E-1
7.255089389E1,8.068706393E-1,9.838075638E0,-3.064671755E-1
7.265096684E1,8.164477348E-1,9.857229233E0,-1.436564922E-1
7.275102839E1,7.565908432E-1,9.842864037E0,-3.208328187E-1
7.285109490E1,8.547561169E-1,9.866806030E0,-3.256213665E-1
7.295116225E1,8.212362528E-1,9.809344292E0,-2.011190802E-1
7.305122966E1,7.613793612E-1,9.845257759E0,-2.968900800E-1
7.315130368E1,8.092648983E-1,9.833286285E0,-2.729473412E-1
7.325136379E1,7.853221297E-1,9.854835510E0,-2.346389294E-1
7.335143070E1,8.068706393E-1,9.823709488E0,-2.681587934E-1
7.345149805E1,8.332076073E-1,9.818921089E0,-2.657645047E-1
7.355156996E1,7.422251701E-1,9.857229233E0,-2.921015322E-1
7.365163134E1,8.116591573E-1,9.816526413E0,-2.657645047E-1
7.375169929E1,8.643332124E-1,9.847652435E0,-2.753416002E-1
7.385176660E1,8.164477348E-1,9.847652435E0,-3.016786277E-1
7.395183358E1,7.494080067E-1,9.823709488E0,-2.322446555E-1
7.405190073E1,8.116591573E-1,9.838075638E0,-2.777358890E-1
7.415196787E1,8.284190893E-1,9.823709488E0,-2.561874092E-1
7.425204042E1,8.236305118E-1,9.838075638E0,-2.968900800E-1
7.435210194E1,7.972934842E-1,9.847652435E0,-3.256213665E-1
7.445216892E1,8.930644989E-1,9.833286285E0,-3.806896806E-1
7.455223543E1,7.972934842E-1,9.814132690E0,-2.394274771E-1
7.465230321E1,7.901107073E-1,9.826104164E0,-2.657645047E-1
7.475237050E1,8.356019258E-1,9.869200706E0,-3.950553536E-1
7.485243734E1,7.805336118E-1,9.857229233E0,-2.753416002E-1
7.495250453E1,7.948992252E-1,9.852440834E0,-2.921015322E-1
7.505257527E1,7.901107073E-1,9.854835510E0,-3.543526828E-1
7.515264352E1,8.475732803E-1,9.818921089E0,-3.232271075E-1
7.525270933E1,8.212362528E-1,9.799766541E0,-3.423812985E-1
7.535277278E1,8.140534163E-1,9.842864037E0,-3.447755575E-1
7.545284206E1,8.356019258E-1,9.826104164E0,-3.328042030E-1
7.555290717E1,7.877163887E-1,9.821314812E0,-2.657645047E-1
7.565297828E1,7.996878028E-1,9.833286285E0,-2.992843390E-1
7.575304743E1,8.643332124E-1,9.857229233E0,-3.782954216E-1
7.585311018E1,8.308133483E-1,9.838075638E0,-3.160442710E-1
7.595317682E1,8.188419938E-1,9.838075638E0,-2.657645047E-1
7.605324287E1,8.595446348E-1,9.830892563E0,-3.471698463E-1
7.615331065E1,8.356019258E-1,9.826104164E0,-3.519583941E-1
7.625337703E1,7.565908432E-1,9.830892563E0,-2.178790122E-1
7.635344535E1,8.643332124E-1,9.830892563E0,-3.112557232E-1
7.645351650E1,8.667274714E-1,9.845257759E0,-2.537931204E-1
7.655357788E1,7.925049663E-1,9.835680962E0,-2.537931204E-1
7.665364563E1,8.451790214E-1,9.852440834E0,-2.825244367E-1
7.675371227E1,8.715160489E-1,9.840469360E0,-2.921015322E-1
7.685378055E1,8.475732803E-1,9.835680962E0,-2.753416002E-1
7.695384663E1,8.499675393E-1,9.828497887E0,-2.609759569E-1
7.705391548E1,8.308133483E-1,9.838075638E0,-2.801301479E-1
7.715398352E1,8.356019258E-1,9.828497887E0,-2.418217510E-1
7.725404844E1,8.116591573E-1,9.852440834E0,-2.418217510E-1
7.735411665E1,7.757450342E-1,9.828497887E0,-2.561874092E-1
7.745418333E1,8.667274714E-1,9.842864037E0,-3.567469418E-1
7.755424951E1,8.523618579E-1,9.838075638E0,-3.759011328E-1
7.765431619E1,7.948992252E-1,9.842864037E0,-3.567469418E-1
7.775438924E1,8.284190893E-1,9.840469360E0,-2.992843390E-1
7.785445112E1,8.834874034E-1,9.816526413E0,-4.070267081E-1
7.795451807E1,7.733507752E-1,9.840469360E0,-3.543526828E-1
7.805458531E1,8.140534163E-1,9.816526413E0,-2.705530524E-1
7.815476147E1,8.308133483E-1,9.830892563E0,-2.992843390E-1
7.825482905E1,8.212362528E-1,9.840469360E0,-2.992843390E-1
7.835489586E1,8.643332124E-1,9.823709488E0,-2.274561077E-1
7.845496294E1,8.810931444E-1,9.809344292E0,-2.561874092E-1
7.855502942E1,8.188419938E-1,9.847652435E0,-2.897072434E-1
7.865509953E1,9.122186899E-1,9.818921089E0,-2.753416002E-1
7.875516381E1,8.379961848E-1,9.852440834E0,-3.160442710E-1
7.885523123E1,8.164477348E-1,9.859623909E0,-2.777358890E-1
7.895529851E1,8.356019258E-1,9.811738014E0,-2.466102988E-1
7.905536636E1,8.116591573E-1,9.818921089E0,-2.705530524E-1
7.915543280E1,8.858816624E-1,9.816526413E0,-2.490045726E-1
7.925550009E1,8.475732803E-1,9.845257759E0,-2.130904645E-1
7.935556650E1,8.475732803E-1,9.811738014E0,-2.705530524E-1
7.945563401E1,8.571503758E-1,9.838075638E0,-2.130904645E-1
7.955570009E1,8.475732803E-1,9.814132690E0,-3.160442710E-1
7.965576781E1,8.499675393E-1,9.830892563E0,-2.418217510E-1
7.975583962E1,8.308133483E-1,9.857229233E0,-2.250618339E-1
7.985590320E1,8.308133483E-1,9.842864037E0,-2.944957912E-1
7.995597001E1,8.284190893E-1,9.866806030E0,-3.854782581E-1
8.005603646E1,8.499675393E-1,9.840469360E0,-2.585816681E-1
8.015610398E1,7.637736797E-1,9.838075638E0,-3.016786277E-1
8.025617096E1,8.188419938E-1,9.835680962E0,-3.543526828E-1
8.035623887E1,8.212362528E-1,9.881172180E0,-3.926610649E-1
8.045630528E1,8.547561169E-1,9.811738014E0,-3.112557232E-1
8.055637160E1,8.882759809E-1,9.845257759E0,-3.112557232E-1
8.065643934E1,8.284190893E-1,9.838075638E0,-3.591412306E-1
8.075650736E1,8.188419938E-1,9.828497887E0,-2.346389294E-1
8.085657380E1,8.547561169E-1,9.838075638E0,-3.016786277E-1
8.095664095E1,8.427847624E-1,9.818921089E0,-2.753416002E-1
8.105670800E1,8.691217303E-1,9.835680962E0,-2.178790122E-1
8.115677504E1,8.810931444E-1,9.854835510E0,-2.298503816E-1
8.125684226E1,8.356019258E-1,9.850046158E0,-2.178790122E-1
8.135690997E1,8.499675393E-1,9.823709488E0,-2.513988614E-1
8.145697648E1,8.810931444E-1,9.859623909E0,-2.035133541E-1
8.155704276E1,8.786988258E-1,9.835680962E0,-2.202732861E-1
8.165710891E1,8.499675393E-1,9.845257759E0,-2.753416002E-1
8.175717796E1,9.313728809E-1,9.806949615E0,-2.035133541E-1
8.185724507E1,8.379961848E-1,9.823709488E0,-2.011190802E-1
8.195731292E1,8.356019258E-1,9.835680962E0,-2.921015322E-1
8.205737913E1,8.356019258E-1,9.823709488E0,-2.537931204E-1
8.215744894E1,9.026415944E-1,9.811738014E0,-3.375927508E-1
8.225751419E1,8.595446348E-1,9.821314812E0,-1.508393139E-1
8.235758054E1,8.308133483E-1,9.830892563E0,-3.735068738E-1
8.245764788E1,8.236305118E-1,9.838075638E0,-3.304099143E-1
8.255771269E1,8.858816624E-1,9.802161217E0,-2.298503816E-1
8.265778181E1,8.092648983E-1,9.814132690E0,-3.447755575E-1
8.275784819E1,8.044763207E-1,9.847652435E0,-4.118152559E-1
8.285791721E1,8.619389534E-1,9.842864037E0,-2.825244367E-1
8.295798272E1,8.020820618E-1,9.838075638E0,-2.944957912E-1
8.305805030E1,8.691217303E-1,9.811738014E0,-3.304099143E-1
8.315811821E1,8.451790214E-1,9.845257759E0,-2.705530524E-1
8.325818446E1,7.948992252E-1,9.826104164E0,-3.663240373E-1
8.335825301E1,8.858816624E-1,9.806949615E0,-2.561874092E-1
8.345831949E1,8.691217303E-1,9.838075638E0,-2.968900800E-1
8.355838607E1,8.068706393E-1,9.826104164E0,-2.490045726E-1
8.365845361E1,8.667274714E-1,9.845257759E0,-2.777358890E-1
8.375852309E1,8.427847624E-1,9.845257759E0,-2.537931204E-1
8.385858741E1,7.996878028E-1,9.854835510E0,-2.226675600E-1
8.395865672E1,8.356019258E-1,9.850046158E0,-3.016786277E-1
8.405872196E1,8.044763207E-1,9.826104164E0,-2.633702159E-1
8.415878828E1,8.523618579E-1,9.852440834E0,-2.154847383E-1
8.425885556E1,8.930644989E-1,9.811738014E0,-2.442160249E-1
8.435892354E1,8.571503758E-1,9.838075638E0,-2.801301479E-1
8.445899082E1,8.810931444E-1,9.811738014E0,-1.915419847E-1
8.455905587E1,9.002473354E-1,9.806949615E0,-2.418217510E-1
8.465912518E1,8.667274714E-1,9.818921089E0,-2.490045726E-1
8.475919846E1,8.571503758E-1,9.847652435E0,-2.154847383E-1
8.485925804E1,8.308133483E-1,9.828497887E0,-2.777358890E-1
8.495932589E1,8.906702399E-1,9.871595383E0,-3.591412306E-1
8.505939947E1,8.427847624E-1,9.821314812E0,-3.256213665E-1
8.515946212E1,8.116591573E-1,9.809344292E0,-2.370332032E-1
8.525952823E1,8.667274714E-1,9.862017632E0,-2.968900800E-1
8.535959801E1,8.475732803E-1,9.830892563E0,-2.873129845E-1
8.545966186E1,8.499675393E-1,9.811738014E0,-4.142095447E-1
8.555981687E1,8.595446348E-1,9.838075638E0,-3.328042030E-1
8.565988249E1,9.002473354E-1,9.806949615E0,-3.375927508E-1
8.575994933E1,8.212362528E-1,9.850046158E0,-3.088614643E-1
8.586001641E1,7.901107073E-1,9.845257759E0,-2.705530524E-1
8.596008346E1,8.356019258E-1,9.816526413E0,-3.280156553E-1
8.606015627E1,8.523618579E-1,9.845257759E0,-3.208328187E-1
8.616021778E1,8.260248303E-1,9.826104164E0,-1.771763414E-1
8.626028470E1,7.805336118E-1,9.835680962E0,-2.513988614E-1
8.636035198E1,8.930644989E-1,9.842864037E0,-3.351984620E-1
8.646041982E1,8.882759809E-1,9.785401344E0,-1.843591630E-1
8.656048450E1,8.451790214E-1,9.821314812E0,-2.537931204E-1
8.666055422E1,8.523618579E-1,9.850046158E0,-2.633702159E-1
8.676062120E1,8.978530765E-1,9.797372818E0,-3.016786277E-1
8.686068764E1,8.116591573E-1,9.835680962E0,-2.657645047E-1
8.696075472E1,1.000806928E0,9.804554939E0,-1.532335877E-1
8.706082183E1,9.241901040E-1,9.866806030E0,-3.208328187E-1
8.716088875E1,7.518022656E-1,9.835680962E0,-3.040728867E-1
8.726095603E1,6.991282701E-1,9.842864037E0,-2.466102988E-1
8.736102367E1,8.763045669E-1,9.871595383E0,-2.968900800E-1
8.746109099E1,8.092648983E-1,9.835680962E0,-1.699935049E-1
8.756115544E1,9.385557175E-1,9.826104164E0,-3.328042030E-1
8.766122385E1,7.733507752E-1,9.751881599E0,-3.088614643E-1
8.776129450E1,7.661679387E-1,9.842864037E0,-2.849186957E-1
8.786135925E1,8.667274714E-1,9.761458397E0,1.915419847E-2
8.796142643E1,5.363175869E-1,9.821314812E0,-3.495641351E-1
8.806149331E1,4.381522834E-1,9.897932053E0,-1.340793967E-1
8.816156069E1,8.188419938E-1,9.881172180E0,-2.849186957E-1
8.826162734E1,9.050358534E-1,9.802161217E0,-2.202732861E-1
8.836169438E1,6.273000240E-1,1.000327969E1,-3.926610649E-1
8.846176146E1,6.392713785E-1,9.771035194E0,-5.746259540E-2
8.856182674E1,7.110996246E-1,9.835680962E0,-1.556278616E-1
8.866189572E1,6.033572555E-1,9.919480324E0,-3.830839694E-1
8.876196264E1,8.092648983E-1,9.768641472E0,-1.077423692E-1
8.886203059E1,7.877163887E-1,9.912297249E0,-3.567469418E-1
8.896209687E1,7.829278708E-1,9.790189743E0,-8.858817071E-2
8.906216422E1,5.650488734E-1,9.895537376E0,-2.825244367E-1
8.916223156E1,8.116591573E-1,9.845257759E0,-1.436564922E-1
8.926230468E1,8.332076073E-1,9.852440834E0,-1.987248063E-1
8.936237122E1,6.129343510E-1,9.804554939E0,-1.077423692E-1
8.946243340E1,7.039167881E-1,9.866806030E0,-1.747820675E-1
8.956249918E1,8.595446348E-1,9.790189743E0,-1.795706153E-1
8.966256899E1,8.475732803E-1,9.857229233E0,-4.405465722E-1
8.976263574E1,7.925049663E-1,9.857229233E0,-1.987248063E-1
8.986270096E1,8.188419938E-1,9.794978142E0,-8.140534163E-2
8.996277127E1,7.134938836E-1,9.912297249E0,-4.357580245E-1
9.006283552E1,9.026415944E-1,9.895537376E0,-1.484450400E-1
9.016290323E1,7.374366522E-1,9.919480324E0,-2.825244367E-1
9.026297008E1,6.703969240E-1,9.835680962E0,-1.197137404E-2
9.036303999E1,7.972934842E-1,9.818921089E0,-2.442160249E-1
9.046310370E1,7.302538157E-1,9.857229233E0,-2.035133541E-1
9.056316878E1,7.494080067E-1,9.845257759E0,-2.178790122E-1
9.066323650E1,6.799740195E-1,9.897932053E0,-3.040728867E-1
9.076330551E1,7.829278708E-1,9.835680962E0,-4.094209969E-1
9.086337233E1,7.398309112E-1,9.842864037E0,-3.232271075E-1
9.096344390E1,7.470137477E-1,9.852440834E0,-3.064671755E-1
9.106350662E1,7.613793612E-1,9.876383781E0,-3.735068738E-1
9.116357350E1,7.972934842E-1,9.802161217E0,-2.202732861E-1
9.126364241E1,7.494080067E-1,9.835680962E0,-3.280156553E-1
9.136371186E1,7.350423932E-1,9.823709488E0,-2.322446555E-1
9.146377527E1,7.733507752E-1,9.830892563E0,-1.628106833E-1
9.156384585E1,7.470137477E-1,9.845257759E0,-3.184385598E-1
9.166390940E1,7.565908432E-1,9.826104164E0,-1.723877788E-1
9.176397618E1,8.068706393E-1,9.845257759E0,-2.059076279E-1
9.186404356E1,7.206767201E-1,9.866806030E0,-2.250618339E-1
9.196411071E1,7.541965842E-1,9.840469360E0,-1.292908341E-1
9.206417762E1,8.451790214E-1,9.864412308E0,-1.340793967E-1
9.216424487E1,7.278595567E-1,9.771035194E0,-2.873129770E-2
9.226431225E1,8.332076073E-1,9.850046158E0,-3.088614643E-1
9.236437930E1,6.967339516E-1,9.890748978E0,-3.591412306E-1
9.246444648E1,8.379961848E-1,9.809344292E0,-1.197137386E-1
9.256451153E1,9.409499764E-1,9.771035194E0,-9.577099234E-2
9.266458624E1,6.775797606E-1,9.838075638E0,-1.268965602E-1
9.276464812E1,7.518022656E-1,9.806949615E0,-1.843591630E-1
9.286471453E1,8.044763207E-1,9.847652435E0,-2.130904645E-1
9.296489672E1,8.116591573E-1,9.857229233E0,-2.490045726E-1
9.306496360E1,7.853221297E-1,9.838075638E0,-1.723877788E-1
9.316503045E1,7.541965842E-1,9.828497887E0,-2.992843390E-1
9.326509733E1,7.613793612E-1,9.854835510E0,-4.788549542E-1
9.336516437E1,8.858816624E-1,9.864412308E0,-3.495641351E-1
9.346523175E1,8.308133483E-1,9.859623909E0,-3.184385598E-1
9.356529717E1,7.685621977E-1,9.854835510E0,-1.436564922E-1
9.366536585E1,8.834874034E-1,9.859623909E0,-3.375927508E-1
9.376543433E1,8.379961848E-1,9.835680962E0,-1.604164094E-1
9.386550141E1,8.739103079E-1,9.826104164E0,-2.466102988E-1
9.396556776E1,8.475732803E-1,9.845257759E0,-2.585816681E-1
9.406564164E1,8.020820618E-1,9.850046158E0,-1.891477108E-1
9.416570128E1,8.667274714E-1,9.878777504E0,-3.256213665E-1
9.426576859E1,8.403904438E-1,9.756669998E0,4.309694469E-2
9.436583598E1,8.451790214E-1,9.850046158E0,-2.274561077E-1
9.446590302E1,7.685621977E-1,9.799766541E0,-9.098244458E-2
9.456596720E1,9.337671995E-1,9.890748978E0,-2.825244367E-1
9.466603758E1,8.188419938E-1,9.814132690E0,-1.221080124E-1
9.476610486E1,7.541965842E-1,9.859623909E0,-1.963305324E-1
9.486617128E1,9.840469360E-1,9.852440834E0,-4.764606953E-1
9.496623889E1,7.877163887E-1,9.876383781E0,-2.992843390E-1
9.506630920E1,8.140534163E-1,9.864412308E0,-3.375927508E-1
9.516637262E1,8.427847624E-1,9.838075638E0,-3.232271075E-1
9.526644040E1,6.919454336E-1,9.842864037E0,-3.088614643E-1
9.536650708E1,8.619389534E-1,9.804554939E0,-4.788549617E-2
9.546657416E1,7.733507752E-1,9.783006668E0,-9.337671846E-2
9.556664574E1,9.912297726E-1,9.881172180E0,-5.363175869E-1
9.566670802E1,8.571503758E-1,9.897932053E0,-5.099805593E-1
9.576677523E1,8.188419938E-1,9.792584419E0,-3.112557232E-1
9.586684245E1,8.260248303E-1,9.761458397E0,-9.577099234E-2
9.596690959E1,9.433442950E-1,9.881172180E0,-3.639297783E-1
9.606697677E1,9.074301720E-1,9.828497887E0,-3.256213665E-1
9.616705125E1,9.170072675E-1,9.828497887E0,-3.591412306E-1
9.626711193E1,8.954587579E-1,9.821314812E0,-2.633702159E-1
9.636717845E1,8.571503758E-1,9.818921089E0,-1.460507661E-1
9.646724593E1,9.026415944E-1,9.857229233E0,-2.322446555E-1
9.656730961E1,9.960182905E-1,9.794978142E0,-3.208328187E-1
9.666737772E1,9.194015265E-1,9.792584419E0,-2.442160249E-1
9.676744617E1,9.553156495E-1,9.859623909E0,-3.519583941E-1
9.686751508E1,8.763045669E-1,9.778218269E0,-1.915419847E-1
9.696758166E1,1.017566800E0,9.794978142E0,-1.795706153E-1
9.706764794E1,1.017566800E0,9.823709488E0,-3.136500120E-1
9.716771539E1,8.978530765E-1,9.811738014E0,-2.729473412E-1
9.726778224E1,9.696813226E-1,9.826104164E0,-2.777358890E-1
9.736785072E1,9.577099085E-1,9.828497887E0,-4.237866402E-1
9.746791650E1,9.601042271E-1,9.814132690E0,-2.992843390E-1
9.756798105E1,9.888355136E-1,9.785401344E0,-2.609759569E-1
9.766805056E1,9.026415944E-1,9.804554939E0,-2.705530524E-1
9.776811907E1,7.637736797E-1,9.857229233E0,-2.154847383E-1
9.786818648E1,9.361614585E-1,9.830892563E0,-1.747820675E-1
9.796825193E1,9.577099085E-1,9.802161217E0,-2.968900800E-1
9.806831925E1,8.906702399E-1,9.840469360E0,-4.094209969E-1
9.816838763E1,7.901107073E-1,9.854835510E0,-4.644893110E-1
9.826845321E1,7.685621977E-1,9.787795067E0,-2.250618339E-1
9.836852082E1,9.433442950E-1,9.766246796E0,-1.771763414E-1
9.846858877E1,9.624984860E-1,9.823709488E0,-3.184385598E-1
9.856865145E1,8.020820618E-1,9.821314812E0,-1.173194647E-1
9.866872053E1,7.422251701E-1,9.878777504E0,-3.543526828E-1
9.876878981E1,1.046298146E0,9.809344292E0,-2.394274771E-1
9.886885716E1,8.954587579E-1,9.814132690E0,-1.580221355E-1
9.896892321E1,8.284190893E-1,9.821314812E0,-1.963305324E-1
9.906899012E1,8.667274714E-1,9.792584419E0,-3.495641351E-1
9.916906377E1,9.026415944E-1,9.809344292E0,-3.495641351E-1
9.926912461E1,8.356019258E-1,9.816526413E0,-2.777358890E-1
9.936919146E1,8.858816624E-1,9.830892563E0,-4.357580245E-1
9.946925957E1,9.265843630E-1,9.864412308E0,-4.884320498E-1
9.956932295E1,6.296942830E-1,9.790189743E0,-2.202732861E-1
9.966939604E1,8.619389534E-1,9.792584419E0,-2.705530524E-1
9.976946448E1,8.571503758E-1,9.866806030E0,-2.753416002E-1
9.986952743E1,9.457385540E-1,9.840469360E0,-3.040728867E-1
9.996959387E1,9.002473354E-1,9.794978142E0,-1.292908341E-1
1.000696685E2,8.188419938E-1,9.881172180E0,-4.094209969E-1
1.001697288E2,8.954587579E-1,9.816526413E0,-3.471698463E-1
1.002697957E2,8.427847624E-1,9.792584419E0,-2.250618339E-1
1.003699779E2,9.122186899E-1,9.838075638E0,0.000000000E0
1.004700389E2,9.313728809E-1,9.852440834E0,-2.801301479E-1
1.005701043E2,9.529213905E-1,9.766246796E0,-4.022381604E-1
1.006701691E2,8.547561169E-1,9.806949615E0,-3.998439014E-1
1.007702457E2,9.217957854E-1,9.759063721E0,-2.442160249E-1
1.008703079E2,1.029538155E0,9.794978142E0,-2.226675600E-1
1.009703744E2,1.027143836E0,9.766246796E0,-3.160442710E-1
1.010704415E2,8.763045669E-1,9.821314812E0,-2.011190802E-1
1.011705083E2,9.146129489E-1,9.854835510E0,-2.825244367E-1
1.012705758E2,9.672870040E-1,9.816526413E0,-1.484450400E-1
1.013706438E2,9.313728809E-1,9.852440834E0,-2.753416002E-1
1.014707095E2,8.571503758E-1,9.869200706E0,-3.016786277E-1
1.015707751E2,8.906702399E-1,9.828497887E0,-2.849186957E-1
1.016708414E2,9.984126091E-1,9.821314812E0,-4.094209969E-1
1.017709110E2,9.122186899E-1,9.778218269E0,-1.915419847E-1
1.018709784E2,8.739103079E-1,9.809344292E0,-3.016786277E-1
1.019710455E2,9.505270720E-1,9.840469360E0,-2.897072434E-1
1.020711122E2,9.648927450E-1,9.838075638E0,-3.950553536E-1
1.021711798E2,8.739103079E-1,9.830892563E0,-2.130904645E-1
1.022712502E2,9.074301720E-1,9.830892563E0,-2.657645047E-1
1.023713134E2,8.284190893E-1,9.859623909E0,-2.968900800E-1
1.024713817E2,9.122186899E-1,9.847652435E0,-4.453351200E-1
1.025714463E2,8.475732803E-1,9.766246796E0,-5.554717779E-1
1.026715212E2,8.834874034E-1,9.730332375E0,-8.858817071E-2
1.027715826E2,9.744698405E-1,9.802161217E0,-2.968900800E-1
1.028716503E2,8.619389534E-1,9.864412308E0,-2.968900800E-1
1.029717247E2,8.308133483E-1,9.840469360E0,-3.375927508E-1
1.030717846E2,8.691217303E-1,9.826104164E0,-2.035133541E-1
1.031718523E2,9.624984860E-1,9.771035194E0,-1.747820675E-1
1.032719179E2,9.936240315E-1,9.845257759E0,-2.825244367E-1
1.033719849E2,1.070240855E0,9.842864037E0,-2.801301479E-1
1.034720520E2,1.053480864E0,9.816526413E0,-3.112557232E-1
1.035721238E2,9.457385540E-1,9.842864037E0,-3.519583941E-1
1.036721870E2,1.060663700E0,9.806949615E0,-1.412622184E-1
1.037722539E2,9.984126091E-1,9.797372818E0,-3.711125851E-1
1.038723208E2,9.816526771E-1,9.838075638E0,-5.147690773E-1
1.039723886E2,1.041509509E0,9.775823593E0,-5.578660369E-1
1.040724586E2,9.984126091E-1,9.723150253E0,-1.819648892E-1
1.041725219E2,9.840469360E-1,9.787795067E0,-2.873129845E-1
1.042725892E2,1.067846537E0,9.804554939E0,-3.232271075E-1
1.043726558E2,9.984126091E-1,9.847652435E0,-3.016786277E-1
1.044727236E2,1.005595446E0,9.806949615E0,-3.136500120E-1
1.045727883E2,9.577099085E-1,9.835680962E0,-2.777358890E-1
1.046728595E2,1.005595446E0,9.814132690E0,-2.897072434E-1
1.047729248E2,9.792584181E-1,9.842864037E0,-2.466102988E-1
1.048729942E2,9.577099085E-1,9.833286285E0,-2.729473412E-1
1.049730590E2,8.188419938E-1,9.845257759E0,-1.604164094E-1
1.050731265E2,8.212362528E-1,9.811738014E0,-8.619388938E-2
1.051731945E2,1.063058019E0,9.821314812E0,-4.285751879E-1
1.052732644E2,8.403904438E-1,9.826104164E0,-3.567469418E-1
1.053733276E2,9.385557175E-1,9.876383781E0,-2.921015322E-1
1.054733971E2,8.140534163E-1,9.821314812E0,-2.585816681E-1
1.055734634E2,7.661679387E-1,9.854835510E0,-2.154847234E-2
1.056735401E2,8.715160489E-1,9.838075638E0,-2.106961906E-1
1.057735997E2,7.470137477E-1,9.857229233E0,-2.609759569E-1
1.058736657E2,7.182824612E-1,9.852440834E0,-2.370332032E-1
1.059737304E2,8.475732803E-1,9.840469360E0,-1.508393139E-1
1.060737971E2,9.361614585E-1,9.830892563E0,-2.322446555E-1
1.061738642E2,9.122186899E-1,9.830892563E0,-2.849186957E-1
1.062739355E2,8.834874034E-1,9.768641472E0,-1.795706153E-1
1.063739992E2,9.170072675E-1,9.857229233E0,-3.974496126E-1
1.064740669E2,1.015172482E0,9.771035194E0,-5.075862408E-1
1.065741303E2,8.451790214E-1,9.816526413E0,-6.105400920E-1
1.066742017E2,9.098244309E-1,9.720755577E0,-2.633702159E-1
1.067742673E2,9.601042271E-1,9.732727051E0,-2.370332032E-1
1.068743348E2,9.409499764E-1,9.885960579E0,-3.064671755E-1
1.069744015E2,9.361614585E-1,9.835680962E0,-2.106961906E-1
1.070744683E2,8.619389534E-1,9.840469360E0,-2.777358890E-1
1.071745361E2,9.026415944E-1,9.828497887E0,-3.591412306E-2
1.072746032E2,9.241901040E-1,9.806949615E0,-1.125309169E-1
1.073746701E2,9.241901040E-1,9.864412308E0,-2.801301479E-1
1.074747377E2,7.901107073E-1,9.830892563E0,-8.858817071E-2
1.075748054E2,7.302538157E-1,9.835680962E0,-2.083019018E-1
1.076748715E2,8.882759809E-1,9.811738014E0,2.394274808E-2
1.077749802E2,7.877163887E-1,9.840469360E0,-1.268965602E-1
1.078750533E2,6.895511150E-1,9.826104164E0,-1.867534369E-1
1.079751143E2,7.925049663E-1,9.854835510E0,-2.921015322E-1
1.080751817E2,8.284190893E-1,9.830892563E0,-3.328042030E-1
1.081752482E2,6.967339516E-1,9.850046158E0,-2.609759569E-1
1.082753171E2,7.541965842E-1,9.854835510E0,-3.208328187E-1
1.083753828E2,7.254652381E-1,9.811738014E0,-2.178790122E-1
1.084754492E2,7.757450342E-1,9.866806030E0,-3.615354896E-1
1.085755195E2,7.446194887E-1,9.857229233E0,-2.490045726E-1
1.086755858E2,8.619389534E-1,9.826104164E0,-2.035133541E-1
1.087756526E2,8.379961848E-1,9.871595383E0,-3.615354896E-1
1.088757193E2,8.978530765E-1,9.802161217E0,-2.609759569E-1
1.089757857E2,8.092648983E-1,9.864412308E0,-2.274561077E-1
1.090758528E2,8.212362528E-1,9.838075638E0,-1.628106833E-1
1.091759206E2,8.260248303E-1,9.862017632E0,-4.285751879E-1
1.092759869E2,8.020820618E-1,9.840469360E0,-3.208328187E-1
1.093760541E2,9.361614585E-1,9.790189743E0,-2.011190802E-1
1.094761210E2,8.906702399E-1,9.747093201E0,-1.173194647E-1
1.095761849E2,9.265843630E-1,9.840469360E0,-1.412622184E-1
1.096762504E2,8.164477348E-1,9.818921089E0,-2.490045726E-1
1.097763225E2,8.667274714E-1,9.871595383E0,-2.394274771E-1
1.098763899E2,9.744698405E-1,9.797372818E0,-2.561874092E-1
1.099764567E2,7.613793612E-1,9.893143654E0,-1.628106833E-1
1.100765239E2,8.068706393E-1,9.838075638E0,-1.867534369E-1
1.101765910E2,7.518022656E-1,9.847652435E0,-1.939362586E-1
1.102766582E2,8.332076073E-1,9.797372818E0,-8.619388938E-2
1.103767254E2,9.529213905E-1,9.871595383E0,-4.237866402E-1
1.104767926E2,5.411061049E-1,9.842864037E0,-2.705530524E-1
1.105768575E2,8.499675393E-1,9.850046158E0,-4.309694767E-1
1.106769230E2,7.589851022E-1,9.828497887E0,-4.788549542E-1
1.107769937E2,7.757450342E-1,9.859623909E0,-2.825244367E-1
1.108770662E2,8.356019258E-1,9.847652435E0,-2.178790122E-1
1.109771281E2,7.302538157E-1,9.847652435E0,-3.399870098E-1
1.110771952E2,8.403904438E-1,9.857229233E0,-4.142095447E-1
1.111772633E2,8.619389534E-1,9.811738014E0,-3.184385598E-1
1.112773295E2,6.416656375E-1,9.792584419E0,-1.723877788E-1
1.113773989E2,8.595446348E-1,9.799766541E0,-1.484450400E-1
1.114774664E2,7.853221297E-1,9.814132690E0,-1.364736706E-1
1.115775275E2,7.661679387E-1,9.802161217E0,-1.053480953E-1
1.116775991E2,7.565908432E-1,9.857229233E0,-2.561874092E-1
1.117776644E2,7.565908432E-1,9.847652435E0,-2.202732861E-1
1.118777382E2,8.092648983E-1,9.818921089E0,-1.843591630E-1
1.119777993E2,8.116591573E-1,9.854835510E0,-3.615354896E-1
1.120778668E2,7.326480746E-1,9.845257759E0,-1.556278616E-1
1.121779338E2,8.236305118E-1,9.811738014E0,-1.891477108E-1
1.122780013E2,8.308133483E-1,9.840469360E0,-1.484450400E-1
1.123780703E2,8.212362528E-1,9.845257759E0,-2.729473412E-1
1.124781352E2,9.098244309E-1,9.818921089E0,-2.825244367E-1
1.125782003E2,8.044763207E-1,9.809344292E0,-3.160442710E-1
1.126782713E2,8.116591573E-1,9.823709488E0,-1.628106833E-1
1.127783358E2,8.858816624E-1,9.802161217E0,-2.585816681E-1
1.128784039E2,8.667274714E-1,9.876383781E0,-2.944957912E-1
1.129784701E2,8.092648983E-1,9.847652435E0,-1.819648892E-1
1.130785380E2,8.739103079E-1,9.847652435E0,-4.573064744E-1
1.131786046E2,9.241901040E-1,9.857229233E0,-5.004034638E-1
1.132786720E2,8.212362528E-1,9.802161217E0,-4.189980924E-1
1.133787402E2,8.332076073E-1,9.809344292E0,-4.166038036E-1
1.134788077E2,8.786988258E-1,9.830892563E0,-2.130904645E-1
1.135788706E2,8.403904438E-1,9.838075638E0,-1.867534369E-1
1.136789383E2,8.188419938E-1,9.816526413E0,-2.657645047E-1
1.137790129E2,8.236305118E-1,9.835680962E0,-2.418217510E-1
1.138790749E2,7.733507752E-1,9.840469360E0,-2.729473412E-1
1.139791419E2,8.212362528E-1,9.818921089E0,-2.394274771E-1
1.140792097E2,8.284190893E-1,9.850046158E0,-2.873129845E-1
1.141792771E2,8.260248303E-1,9.854835510E0,-2.322446555E-1
1.142793468E2,7.925049663E-1,9.842864037E0,-2.130904645E-1
1.143794112E2,8.044763207E-1,9.845257759E0,-2.250618339E-1
1.144794787E2,8.116591573E-1,9.847652435E0,-2.418217510E-1
1.145795440E2,8.739103079E-1,9.802161217E0,-3.495641351E-1
1.146796087E2,8.164477348E-1,9.804554939E0,-1.436564922E-1
1.147796786E2,8.140534163E-1,9.799766541E0,-1.077423692E-1
1.148797478E2,8.236305118E-1,9.838075638E0,-3.136500120E-1
1.149798164E2,8.092648983E-1,9.866806030E0,-2.873129845E-1
1.150799799E2,7.661679387E-1,9.838075638E0,-1.628106833E-1
1.151800471E2,7.925049663E-1,9.799766541E0,-2.537931204E-1
1.152801130E2,8.212362528E-1,9.864412308E0,-4.118152559E-1
1.153801856E2,8.164477348E-1,9.814132690E0,-2.154847383E-1
1.154802489E2,7.494080067E-1,9.838075638E0,-3.687183261E-1
1.155803110E2,7.350423932E-1,9.821314812E0,-1.532335877E-1
1.156803805E2,7.996878028E-1,9.893143654E0,-3.663240373E-1
1.157804489E2,8.284190893E-1,9.833286285E0,-3.974496126E-1
1.158805160E2,7.996878028E-1,9.826104164E0,-4.237866402E-1
1.159805842E2,7.996878028E-1,9.802161217E0,-2.202732861E-1
1.160806500E2,8.427847624E-1,9.838075638E0,-4.022381604E-1
1.161807170E2,8.116591573E-1,9.811738014E0,-4.740664065E-1
1.162807836E2,7.230709791E-1,9.833286285E0,-2.921015322E-1
1.163808515E2,8.260248303E-1,9.806949615E0,-3.375927508E-1
1.164809191E2,8.092648983E-1,9.842864037E0,-4.429408312E-1
1.165809822E2,8.260248303E-1,9.902720451E0,-3.232271075E-1
1.166810497E2,7.039167881E-1,9.883566856E0,-3.806896806E-1
1.167811201E2,6.536370516E-1,9.833286285E0,-2.442160249E-1
1.168811869E2,8.212362528E-1,9.806949615E0,-2.250618339E-1
1.169812545E2,7.781392932E-1,9.885960579E0,-4.740664065E-1
1.170813208E2,8.786988258E-1,9.826104164E0,-3.351984620E-1
1.171813883E2,6.153286099E-1,9.912297249E0,-5.291347504E-1
1.172814559E2,6.656084061E-1,9.778218269E0,-2.035133541E-1
1.173815230E2,8.882759809E-1,9.814132690E0,-4.118152559E-1
1.174815895E2,7.134938836E-1,9.857229233E0,-3.351984620E-1
1.175816529E2,7.972934842E-1,9.809344292E0,-3.663240373E-1
1.176817224E2,7.110996246E-1,9.778218269E0,-3.160442710E-1
1.177817913E2,7.374366522E-1,9.847652435E0,-3.998439014E-1
1.178818636E2,7.613793612E-1,9.854835510E0,-2.944957912E-1
1.179819249E2,7.661679387E-1,9.847652435E0,-3.735068738E-1
1.180819986E2,8.092648983E-1,9.809344292E0,-3.184385598E-1
1.181820595E2,7.996878028E-1,9.823709488E0,-3.351984620E-1
1.182821265E2,8.140534163E-1,9.833286285E0,-3.782954216E-1
1.183821936E2,7.757450342E-1,9.806949615E0,-2.226675600E-1
1.184822612E2,7.948992252E-1,9.821314812E0,-2.466102988E-1
1.185823236E2,7.901107073E-1,9.828497887E0,-2.633702159E-1
1.186823927E2,7.781392932E-1,9.871595383E0,-3.495641351E-1
1.187824622E2,8.044763207E-1,9.845257759E0,-2.346389294E-1
1.188825303E2,7.757450342E-1,9.816526413E0,-1.747820675E-1
1.189825961E2,8.786988258E-1,9.850046158E0,-3.423812985E-1
1.190826634E2,7.637736797E-1,9.850046158E0,-2.298503816E-1
1.191827313E2,7.829278708E-1,9.838075638E0,-2.705530524E-1
1.192827986E2,7.613793612E-1,9.833286285E0,-5.985686928E-2
1.193828651E2,8.427847624E-1,9.799766541E0,-9.816526622E-2
1.194829315E2,8.691217303E-1,9.821314812E0,-3.854782581E-1
1.195829954E2,7.374366522E-1,9.881172180E0,-4.597007632E-1
1.196830633E2,6.967339516E-1,9.823709488E0,-1.843591630E-1
1.197831331E2,9.768640995E-1,9.763853073E0,-2.298503816E-1
1.198832044E2,7.781392932E-1,9.797372818E0,-4.118152559E-1
1.199832675E2,7.541965842E-1,9.823709488E0,-2.130904645E-1
1.200833344E2,7.948992252E-1,9.862017632E0,-2.849186957E-1
1.201834025E2,9.768640995E-1,9.826104164E0,-2.801301479E-1
1.202834693E2,9.385557175E-1,9.838075638E0,-3.304099143E-1
1.203835380E2,8.691217303E-1,9.833286285E0,-4.549122155E-1
1.204836043E2,8.619389534E-1,9.775823593E0,-1.460507661E-1
1.205836660E2,9.074301720E-1,9.809344292E0,-4.022381604E-1
1.206837364E2,1.113337755E0,9.761458397E0,-5.865973234E-1
1.207838042E2,1.010383964E0,9.816526413E0,-5.722316504E-1
1.208838716E2,9.241901040E-1,9.792584419E0,-3.184385598E-1
1.209839399E2,9.840469360E-1,9.790189743E0,-2.585816681E-1
1.210840071E2,1.118126392E0,9.818921089E0,-1.436564922E-1
1.211840743E2,9.768640995E-1,9.859623909E0,-3.328042030E-1
1.212841411E2,1.039115310E0,9.869200706E0,-5.482889414E-1
1.213842078E2,6.512427330E-1,9.857229233E0,-1.867534369E-1
1.214842757E2,9.744698405E-1,9.794978142E0,-6.225114316E-2
1.215843372E2,8.308133483E-1,9.847652435E0,-3.663240373E-1
1.216844063E2,8.691217303E-1,9.847652435E0,-3.711125851E-1
1.217844767E2,8.715160489E-1,9.823709488E0,-3.375927508E-1
1.218845438E2,7.661679387E-1,9.806949615E0,-1.747820675E-1
1.219846099E2,8.332076073E-1,9.835680962E0,-3.519583941E-1
1.220846771E2,8.164477348E-1,9.850046158E0,-4.860377908E-1
1.221847440E2,8.667274714E-1,9.823709488E0,-3.854782581E-1
1.222848112E2,7.685621977E-1,9.797372818E0,-3.160442710E-1
1.223848789E2,8.379961848E-1,9.845257759E0,-5.243461728E-1
1.224851243E2,7.422251701E-1,9.792584419E0,-2.298503816E-1
1.225851918E2,8.739103079E-1,9.814132690E0,-4.070267081E-1
1.226852568E2,8.308133483E-1,9.804554939E0,-2.585816681E-1
1.227853256E2,7.925049663E-1,9.794978142E0,-3.160442710E-1
1.228853929E2,8.020820618E-1,9.833286285E0,-3.495641351E-1
1.229854603E2,7.733507752E-1,9.823709488E0,-3.184385598E-1
1.230855271E2,8.356019258E-1,9.857229233E0,-2.130904645E-1
1.231855940E2,8.667274714E-1,9.814132690E0,-2.633702159E-1
1.232856607E2,8.332076073E-1,9.804554939E0,-2.729473412E-1
1.233857286E2,8.164477348E-1,9.828497887E0,-3.399870098E-1
1.234857961E2,8.739103079E-1,9.806949615E0,-3.519583941E-1
1.235858587E2,8.188419938E-1,9.811738014E0,-1.963305324E-1
1.236859273E2,8.810931444E-1,9.847652435E0,-3.136500120E-1
1.237859967E2,8.643332124E-1,9.811738014E0,-2.298503816E-1
1.238860639E2,8.667274714E-1,9.830892563E0,-2.250618339E-1
1.239861312E2,8.260248303E-1,9.871595383E0,-3.064671755E-1
1.240861981E2,8.499675393E-1,9.852440834E0,-2.849186957E-1
1.241862661E2,8.260248303E-1,9.840469360E0,-1.987248063E-1
1.242863325E2,8.356019258E-1,9.823709488E0,-2.633702159E-1
1.243864004E2,7.972934842E-1,9.830892563E0,-2.681587934E-1
1.244864675E2,8.260248303E-1,9.821314812E0,-3.112557232E-1
1.245865336E2,9.074301720E-1,9.780612946E0,-1.819648892E-1
1.246865996E2,9.050358534E-1,9.859623909E0,-5.195576549E-1
1.247866681E2,7.422251701E-1,9.881172180E0,-5.363175869E-1
1.248867356E2,9.170072675E-1,9.864412308E0,-4.836435020E-1
1.249868030E2,7.996878028E-1,9.909903526E0,-4.477293789E-1
1.250868703E2,8.284190893E-1,9.814132690E0,-2.154847383E-1
1.251869374E2,8.834874034E-1,9.838075638E0,-2.226675600E-1
1.252870040E2,9.217957854E-1,9.794978142E0,-2.585816681E-1
1.253870714E2,8.547561169E-1,9.842864037E0,-2.729473412E-1
1.254871378E2,9.624984860E-1,9.821314812E0,-2.322446555E-1
1.255872011E2,9.768640995E-1,9.823709488E0,-2.394274771E-1
1.256872738E2,8.834874034E-1,9.830892563E0,-2.274561077E-1
1.257873397E2,9.601042271E-1,9.862017632E0,-2.825244367E-1
1.258874067E2,9.888355136E-1,9.859623909E0,-3.064671755E-1
1.259874736E2,9.720755816E-1,9.785401344E0,-1.747820675E-1
1.260875402E2,1.012778282E0,9.854835510E0,-4.046324492E-1
1.261876084E2,9.194015265E-1,9.835680962E0,-1.987248063E-1
1.262876754E2,9.601042271E-1,9.809344292E0,-2.178790122E-1
1.263877431E2,9.744698405E-1,9.816526413E0,-3.040728867E-1
1.264878092E2,9.553156495E-1,9.833286285E0,-1.723877788E-1
1.265878719E2,9.768640995E-1,9.814132690E0,-2.418217510E-1
1.266879423E2,1.029538155E0,9.828497887E0,-5.411061049E-1
1.267880110E2,1.029538155E0,9.790189743E0,-5.027977228E-1
1.268880787E2,1.019961119E0,9.840469360E0,-3.926610649E-1
1.269881446E2,1.024749637E0,9.842864037E0,-4.573064744E-1
1.270882143E2,8.499675393E-1,9.852440834E0,-2.202732861E-1
1.271882804E2,1.039115310E0,9.814132690E0,-2.657645047E-1
1.272883460E2,9.289786220E-1,9.862017632E0,-2.992843390E-1
1.273884131E2,9.361614585E-1,9.766246796E0,-1.005595401E-1
1.274884804E2,1.007989645E0,9.773429871E0,-3.160442710E-1
1.275885429E2,8.595446348E-1,9.859623909E0,-4.309694767E-1
1.276886142E2,9.361614585E-1,9.806949615E0,-3.232271075E-1
1.277886820E2,8.403904438E-1,9.787795067E0,-2.585816681E-1
1.278887493E2,9.241901040E-1,9.840469360E0,-2.633702159E-1
1.279888158E2,9.648927450E-1,9.804554939E0,-3.399870098E-1
1.280888835E2,8.068706393E-1,9.811738014E0,-4.644893110E-1
1.281889522E2,9.409499764E-1,9.826104164E0,-4.309694767E-1
1.282890170E2,1.027143836E0,9.842864037E0,-3.351984620E-1
1.283890844E2,8.164477348E-1,9.850046158E0,-3.375927508E-1
1.284891515E2,8.451790214E-1,9.840469360E0,-3.184385598E-1
1.285892156E2,9.720755816E-1,9.799766541E0,-2.992843390E-1
1.286892908E2,8.834874034E-1,9.823709488E0,-3.639297783E-1
1.287893524E2,9.696813226E-1,9.859623909E0,-4.213923812E-1
1.288894201E2,9.720755816E-1,9.797372818E0,-3.854782581E-1
1.289894863E2,9.529213905E-1,9.852440834E0,-4.357580245E-1
1.290895539E2,1.063058019E0,9.814132690E0,-3.950553536E-1
1.291896212E2,9.624984860E-1,9.804554939E0,-3.280156553E-1
1.292896883E2,9.912297726E-1,9.850046158E0,-3.830839694E-1
1.293897554E2,9.912297726E-1,9.775823593E0,-3.902668059E-1
1.294898228E2,9.457385540E-1,9.828497887E0,-3.160442710E-1
1.295898858E2,1.077423692E0,9.814132690E0,-4.142095447E-1
1.296899573E2,9.481328130E-1,9.816526413E0,-4.333637357E-1
1.297900242E2,1.000806928E0,9.852440834E0,-4.477293789E-1
1.298901574E2,9.505270720E-1,9.809344292E0,-1.867534369E-1
1.299902216E2,1.029538155E0,9.830892563E0,-3.615354896E-1
1.300902888E2,9.768640995E-1,9.809344292E0,-2.322446555E-1
1.301903602E2,1.029538155E0,9.802161217E0,-2.106961906E-1
1.302904234E2,7.996878028E-1,9.833286285E0,-3.375927508E-1
1.303904901E2,9.050358534E-1,9.862017632E0,-2.130904645E-1
1.304905643E2,1.058269501E0,9.799766541E0,-9.098244458E-2
1.305906200E2,9.217957854E-1,9.830892563E0,-3.423812985E-1
1.306906901E2,8.499675393E-1,9.883566856E0,-6.368771195E-1
1.307907681E2,9.888355136E-1,9.876383781E0,-4.716721475E-1
1.308908309E2,9.217957854E-1,9.859623909E0,-3.854782581E-1
1.309908975E2,8.403904438E-1,9.821314812E0,-6.464541703E-2
1.310909667E2,9.385557175E-1,9.816526413E0,-3.112557232E-1
1.311910279E2,9.074301720E-1,9.818921089E0,-3.160442710E-1
1.312910940E2,1.029538155E0,9.794978142E0,-2.442160249E-1
1.313911611E2,9.098244309E-1,9.826104164E0,-3.423812985E-1
1.314912283E2,1.041509509E0,9.766246796E0,-3.208328187E-1
1.315912912E2,1.017566800E0,9.771035194E0,-3.328042030E-1
1.316913611E2,9.888355136E-1,9.797372818E0,-4.118152559E-1
1.317914324E2,1.005595446E0,9.845257759E0,-4.309694767E-1
1.318915024E2,1.031932473E0,9.811738014E0,-2.537931204E-1
1.319915640E2,8.906702399E-1,9.735121727E0,-2.681587934E-1
1.320916311E2,1.067846537E0,9.787795067E0,-5.722316504E-1
1.321916993E2,1.091789365E0,9.818921089E0,-6.153286099E-1
1.322917653E2,8.619389534E-1,9.747093201E0,-8.858817071E-2
1.323918326E2,1.130097747E0,9.778218269E0,-2.992843390E-1
1.324918992E2,9.816526771E-1,9.802161217E0,-3.064671755E-1
1.325919620E2,9.792584181E-1,9.811738014E0,-3.208328187E-1
1.326920317E2,8.882759809E-1,9.847652435E0,-2.729473412E-1
1.327921014E2,9.146129489E-1,9.838075638E0,-2.968900800E-1
1.328921763E2,1.156434774E0,9.794978142E0,-2.753416002E-1
1.329922348E2,8.858816624E-1,9.840469360E0,-3.495641351E-1
1.330923023E2,7.829278708E-1,9.852440834E0,-2.801301479E-1
1.331923760E2,1.036720991E0,9.809344292E0,-1.460507661E-1
1.332924416E2,9.289786220E-1,9.787795067E0,-2.513988614E-1
1.333925046E2,9.768640995E-1,9.771035194E0,-3.902668059E-1
1.334925709E2,8.834874034E-1,9.794978142E0,-4.764606953E-1
1.335926319E2,8.691217303E-1,9.792584419E0,-1.819648892E-1
1.336927035E2,1.077423692E0,9.735121727E0,-2.011190802E-1
1.337927722E2,9.840469360E-1,9.818921089E0,-3.830839694E-1
1.338928393E2,9.002473354E-1,9.811738014E0,-3.663240373E-1
1.339929161E2,9.385557175E-1,9.818921089E0,-3.351984620E-1
1.340929727E2,1.168406129E0,9.787795067E0,-4.261809289E-1
1.341930403E2,1.051086664E0,9.773429871E0,-4.812492430E-1
1.342931221E2,1.075029373E0,9.804554939E0,-3.495641351E-1
1.343931757E2,1.041509509E0,9.826104164E0,-3.136500120E-1
1.344932418E2,1.046298146E0,9.766246796E0,-4.213923812E-1
1.345933032E2,1.077423692E0,9.814132690E0,-6.488484740E-1
1.346933748E2,1.151646137E0,9.828497887E0,-6.488484740E-1
1.347934431E2,1.034326673E0,9.890748978E0,-5.219519138E-1
1.348935107E2,9.912297726E-1,9.761458397E0,-2.633702159E-1
1.349935774E2,1.063058019E0,9.761458397E0,-4.405465722E-1
1.350936456E2,9.840469360E-1,9.787795067E0,-3.351984620E-1
1.351937160E2,1.115732074E0,9.818921089E0,-4.237866402E-1
1.352937827E2,9.289786220E-1,9.821314812E0,-3.519583941E-1
1.353938461E2,1.039115310E0,9.828497887E0,-4.597007632E-1
1.354939181E2,8.284190893E-1,9.797372818E0,-3.878725171E-1
1.355939772E2,9.792584181E-1,9.814132690E0,-4.237866402E-1
1.356940464E2,1.096577883E0,9.802161217E0,-2.705530524E-1
1.357941160E2,1.017566800E0,9.797372818E0,-2.609759569E-1
1.358941816E2,1.098972082E0,9.794978142E0,-2.513988614E-1
1.359942482E2,9.385557175E-1,9.866806030E0,-3.040728867E-1
1.360943161E2,1.060663700E0,9.778218269E0,-2.681587934E-1
1.361943844E2,1.089395046E0,9.797372818E0,-3.088614643E-1
1.362944571E2,1.087000728E0,9.830892563E0,-3.878725171E-1
1.363945179E2,1.067846537E0,9.830892563E0,-4.309694767E-1
1.364945852E2,1.027143836E0,9.830892563E0,-5.315290093E-1
1.365946458E2,1.051086664E0,9.792584419E0,-3.998439014E-1
1.366947165E2,1.094183564E0,9.794978142E0,-3.567469418E-1
1.367947853E2,1.019961119E0,9.806949615E0,-3.591412306E-1
1.368948535E2,1.027143836E0,9.802161217E0,-4.094209969E-1
1.369949197E2,1.031932473E0,9.802161217E0,-3.711125851E-1
1.370949905E2,9.768640995E-1,9.787795067E0,-3.160442710E-1
1.371950567E2,1.065452337E0,9.823709488E0,-4.692778587E-1
1.372951271E2,1.182771802E0,9.749486923E0,-1.891477108E-1
1.373951889E2,9.385557175E-1,9.790189743E0,-2.537931204E-1
1.374952595E2,1.007989645E0,9.809344292E0,-4.908263385E-1
1.375953164E2,9.888355136E-1,9.802161217E0,-4.549122155E-1
1.376953897E2,1.031932473E0,9.775823593E0,-1.580221355E-1
1.377954623E2,8.906702399E-1,9.804554939E0,-2.657645047E-1
1.378956398E2,8.954587579E-1,9.842864037E0,-3.687183261E-1
1.379957074E2,8.667274714E-1,9.830892563E0,-9.577099234E-2
1.380957741E2,9.505270720E-1,9.840469360E0,-2.873129845E-1
1.381958411E2,8.236305118E-1,9.833286285E0,-4.812492430E-1
1.382959185E2,9.122186899E-1,9.871595383E0,-3.328042030E-1
1.383959755E2,9.241901040E-1,9.833286285E0,-2.226675600E-1
1.384960488E2,9.816526771E-1,9.835680962E0,-3.782954216E-1
1.385961034E2,9.648927450E-1,9.804554939E0,-3.423812985E-1
1.386961769E2,9.122186899E-1,9.826104164E0,-4.764606953E-1
1.387962443E2,9.361614585E-1,9.830892563E0,-3.519583941E-1
1.388963194E2,8.619389534E-1,9.818921089E0,-3.423812985E-1
1.389963798E2,9.337671995E-1,9.830892563E0,-4.812492430E-1
1.390964455E2,8.978530765E-1,9.816526413E0,-2.801301479E-1
1.391965123E2,1.010383964E0,9.826104164E0,-3.280156553E-1
1.392965804E2,8.379961848E-1,9.756669998E0,-2.490045726E-1
1.393966523E2,9.768640995E-1,9.785401344E0,-3.543526828E-1
1.394967184E2,8.379961848E-1,9.854835510E0,-3.878725171E-1
1.395967805E2,8.188419938E-1,9.785401344E0,-2.705530524E-1
1.396968461E2,8.810931444E-1,9.790189743E0,-1.867534369E-1
1.397969154E2,9.098244309E-1,9.835680962E0,-3.782954216E-1
1.398969836E2,9.265843630E-1,9.814132690E0,-2.561874092E-1
1.399970497E2,8.020820618E-1,9.816526413E0,-3.256213665E-1
1.400971164E2,8.547561169E-1,9.771035194E0,-1.819648892E-1
1.401971838E2,9.601042271E-1,9.823709488E0,-2.753416002E-1
1.402972517E2,1.000806928E0,9.797372818E0,-4.189980924E-1
1.403973180E2,8.786988258E-1,9.802161217E0,-1.532335877E-1
1.404973862E2,1.003201127E0,9.794978142E0,-2.442160249E-1
1.405974520E2,9.960182905E-1,9.845257759E0,-4.477293789E-1
1.406975229E2,9.026415944E-1,9.838075638E0,-5.051919818E-1
1.407975873E2,1.034326673E0,9.895537376E0,-3.591412306E-1
1.408976537E2,9.840469360E-1,9.893143654E0,-3.447755575E-1
1.409977220E2,8.020820618E-1,9.862017632E0,-1.795706153E-1
1.410977882E2,9.505270720E-1,9.876383781E0,-2.250618339E-1
1.411978548E2,9.074301720E-1,9.783006668E0,-1.675992310E-1
1.412979242E2,9.337671995E-1,9.811738014E0,-1.867534369E-1
1.413979897E2,8.739103079E-1,9.821314812E0,-3.351984620E-1
1.414980568E2,9.146129489E-1,9.814132690E0,-2.849186957E-1
1.415981174E2,7.278595567E-1,9.842864037E0,-4.070267081E-1
1.416981923E2,8.643332124E-1,9.873989105E0,-3.112557232E-1
1.417982594E2,8.092648983E-1,9.773429871E0,-1.771763414E-1
1.418983251E2,8.308133483E-1,9.878777504E0,-4.692778587E-1
1.419983928E2,8.140534163E-1,9.854835510E0,-5.315290093E-1
1.420984607E2,7.781392932E-1,9.862017632E0,-3.543526828E-1
1.421985265E2,7.901107073E-1,9.850046158E0,-3.543526828E-1
1.422985967E2,7.709565163E-1,9.809344292E0,-2.274561077E-1
1.423986603E2,8.691217303E-1,9.828497887E0,-2.992843390E-1
1.424987340E2,8.044763207E-1,9.775823593E0,-3.328042030E-1
1.425987895E2,8.810931444E-1,9.780612946E0,-8.858817071E-2
1.426988727E2,9.074301720E-1,9.854835510E0,-3.112557232E-1
1.427989332E2,9.577099085E-1,9.809344292E0,-3.423812985E-1
1.428989982E2,8.595446348E-1,9.826104164E0,-2.202732861E-1
1.429990655E2,8.356019258E-1,9.811738014E0,-3.447755575E-1
1.430991307E2,9.098244309E-1,9.816526413E0,-2.130904645E-1
1.431992015E2,1.003201127E0,9.809344292E0,-3.256213665E-1
1.432992712E2,8.810931444E-1,9.840469360E0,-3.112557232E-1
1.433993374E2,8.834874034E-1,9.804554939E0,-2.442160249E-1
1.434993995E2,9.864411950E-1,9.773429871E0,-1.125309169E-1
1.435994597E2,8.427847624E-1,9.835680962E0,-3.351984620E-1
1.436995319E2,8.356019258E-1,9.842864037E0,-3.064671755E-1
1.437996002E2,8.595446348E-1,9.806949615E0,-1.819648892E-1
1.438996669E2,7.446194887E-1,9.809344292E0,-2.801301479E-1
1.439997354E2,7.853221297E-1,9.850046158E0,-3.471698463E-1
1.440998016E2,8.212362528E-1,9.840469360E0,-2.921015322E-1
1.441998693E2,7.996878028E-1,9.787795067E0,-8.858817071E-2
1.442999354E2,7.063110471E-1,9.873989105E0,-3.902668059E-1
1.444000023E2,7.901107073E-1,9.845257759E0,-6.057515144E-1
1.445000701E2,7.110996246E-1,9.842864037E0,-5.195576549E-1
1.446001308E2,7.446194887E-1,9.790189743E0,-1.699935049E-1
1.447002023E2,9.409499764E-1,9.787795067E0,-2.873129845E-1
1.448002714E2,7.972934842E-1,9.833286285E0,-3.016786277E-1
1.449003387E2,8.044763207E-1,9.830892563E0,-3.280156553E-1
1.450004060E2,7.853221297E-1,9.823709488E0,-3.136500120E-1
1.451004722E2,7.134938836E-1,9.826104164E0,-9.098244458E-2
1.452005425E2,9.146129489E-1,9.797372818E0,-1.699935049E-1
1.453007012E2,8.763045669E-1,9.862017632E0,-3.112557232E-1
1.454007688E2,8.619389534E-1,9.847652435E0,-2.083019018E-1
1.455008355E2,8.571503758E-1,9.816526413E0,-1.652049571E-1
1.456008963E2,9.074301720E-1,9.816526413E0,-2.633702159E-1
1.457009699E2,8.619389534E-1,9.780612946E0,-3.208328187E-1
1.458010376E2,8.763045669E-1,9.826104164E0,-8.858817071E-2
1.459011049E2,8.308133483E-1,9.842864037E0,-2.897072434E-1
1.460011713E2,8.763045669E-1,9.859623909E0,-5.674431324E-1
1.461012382E2,7.925049663E-1,9.842864037E0,-3.854782581E-1
1.462013067E2,8.140534163E-1,9.826104164E0,-1.843591630E-1
1.463013730E2,9.122186899E-1,9.763853073E0,-1.628106833E-1
1.464014403E2,8.427847624E-1,9.835680962E0,-3.591412306E-1
1.465015073E2,7.948992252E-1,9.847652435E0,-3.687183261E-1
1.466015728E2,8.236305118E-1,9.835680962E0,-4.142095447E-1
1.467016451E2,8.475732803E-1,9.823709488E0,-2.442160249E-1
1.468017088E2,8.691217303E-1,9.823709488E0,-2.825244367E-1
1.469017757E2,8.763045669E-1,9.816526413E0,-3.447755575E-1
1.470018424E2,8.212362528E-1,9.835680962E0,-3.112557232E-1
1.471019109E2,8.356019258E-1,9.806949615E0,-2.609759569E-1
1.472019770E2,8.595446348E-1,9.866806030E0,-2.777358890E-1
1.473020488E2,8.571503758E-1,9.799766541E0,-3.280156553E-1
1.474021115E2,8.236305118E-1,9.821314812E0,-2.633702159E-1
1.475021780E2,8.643332124E-1,9.838075638E0,-2.322446555E-1
1.476022460E2,8.499675393E-1,9.768641472E0,-1.221080124E-1
1.477023127E2,7.733507752E-1,9.871595383E0,-3.088614643E-1
1.478023796E2,8.308133483E-1,9.809344292E0,-1.628106833E-1
1.479024625E2,8.834874034E-1,9.799766541E0,-1.149251908E-1
1.480025157E2,8.858816624E-1,9.857229233E0,-3.232271075E-1
1.481025814E2,7.901107073E-1,9.821314812E0,-3.208328187E-1
1.482026503E2,8.691217303E-1,9.799766541E0,-2.585816681E-1
1.483027151E2,7.589851022E-1,9.833286285E0,-3.304099143E-1
1.484027823E2,8.236305118E-1,9.816526413E0,-4.022381604E-1
1.485028504E2,6.943396926E-1,9.828497887E0,-3.064671755E-1
1.486029092E2,7.877163887E-1,9.838075638E0,-3.782954216E-1
1.487029835E2,7.996878028E-1,9.818921089E0,-3.256213665E-1
1.488030509E2,8.571503758E-1,9.830892563E0,-2.226675600E-1
1.489031302E2,8.020820618E-1,9.881172180E0,-4.501236677E-1
1.490031853E2,7.709565163E-1,9.845257759E0,-5.482889414E-1
1.491032526E2,8.667274714E-1,9.862017632E0,-4.118152559E-1
1.492033206E2,9.098244309E-1,9.871595383E0,-3.639297783E-1
1.493033866E2,7.015225291E-1,9.833286285E0,-2.801301479E-1
1.494034555E2,8.786988258E-1,9.828497887E0,-3.016786277E-1
1.495035208E2,8.236305118E-1,9.814132690E0,-2.992843390E-1
1.496035811E2,9.122186899E-1,9.787795067E0,-6.464541703E-2
1.497036539E2,9.744698405E-1,9.840469360E0,-2.992843390E-1
1.498037237E2,1.110943556E0,9.787795067E0,-2.944957912E-1
1.499037887E2,1.072635174E0,9.840469360E0,-5.770202279E-1
1.500038564E2,9.744698405E-1,9.814132690E0,-3.280156553E-1
1.501039237E2,9.960182905E-1,9.780612946E0,-2.202732861E-1
1.502039907E2,1.043903828E0,9.857229233E0,-4.046324492E-1
1.503040579E2,1.211503029E0,9.811738014E0,-4.357580245E-1
1.504041247E2,9.122186899E-1,9.823709488E0,-5.387118459E-1
1.505041916E2,9.505270720E-1,9.739910126E0,-9.577099234E-2
1.506042568E2,1.173194647E0,9.730332375E0,-2.059076279E-1
1.507043368E2,1.091789365E0,9.735121727E0,-2.825244367E-1
1.508043948E2,1.024749637E0,9.783006668E0,-4.692778587E-1
1.509044597E2,9.864411950E-1,9.830892563E0,-3.304099143E-1
1.510045281E2,9.050358534E-1,9.847652435E0,-3.328042030E-1
1.511045952E2,9.313728809E-1,9.811738014E0,-3.759011328E-1
1.512046616E2,8.332076073E-1,9.802161217E0,-3.016786277E-1
1.513047323E2,9.026415944E-1,9.826104164E0,-2.370332032E-1
1.514047969E2,9.936240315E-1,9.869200706E0,-3.806896806E-1
1.515048631E2,7.709565163E-1,9.830892563E0,-2.537931204E-1
1.516049235E2,8.260248303E-1,9.785401344E0,-8.858817071E-2
1.517049998E2,8.906702399E-1,9.806949615E0,-8.619388938E-2
1.518050685E2,9.337671995E-1,9.857229233E0,-3.878725171E-1
1.519051321E2,7.087053657E-1,9.833286285E0,-3.328042030E-1
1.520052042E2,8.715160489E-1,9.900326729E0,-3.016786277E-1
1.521052661E2,9.170072675E-1,9.909903526E0,-3.208328187E-1
1.522053383E2,9.074301720E-1,9.840469360E0,-3.088614643E-1
1.523053993E2,9.624984860E-1,9.814132690E0,-1.532335877E-1
1.524054745E2,7.637736797E-1,9.847652435E0,-2.968900800E-1
1.525055346E2,8.739103079E-1,9.811738014E0,-1.843591630E-1
1.526055945E2,9.026415944E-1,9.828497887E0,-2.035133541E-1
1.527057418E2,9.553156495E-1,9.823709488E0,-2.753416002E-1
1.528058077E2,9.601042271E-1,9.804554939E0,-1.364736706E-1
1.529058754E2,9.409499764E-1,9.850046158E0,-2.178790122E-1
1.530059472E2,9.888355136E-1,9.840469360E0,-2.992843390E-1
1.531060128E2,9.217957854E-1,9.821314812E0,-3.328042030E-1
1.532060829E2,9.241901040E-1,9.811738014E0,-2.059076279E-1
1.533061431E2,8.571503758E-1,9.644139290E0,-1.412622184E-1
1.534062118E2,1.010383964E0,9.799766541E0,-6.153286099E-1
1.535062776E2,1.041509509E0,9.873989105E0,-5.602602959E-1
1.536063394E2,9.074301720E-1,9.888355255E0,-2.921015322E-1
1.537064125E2,8.763045669E-1,9.821314812E0,-2.944957912E-1
1.538064796E2,1.017566800E0,9.816526413E0,-4.501236677E-1
1.539065459E2,9.481328130E-1,9.842864037E0,-3.399870098E-1
1.540066133E2,1.027143836E0,9.835680962E0,-2.825244367E-1
1.541066813E2,9.433442950E-1,9.768641472E0,-8.379961550E-2
1.542067487E2,8.020820618E-1,9.830892563E0,-2.226675600E-1
1.543068212E2,9.122186899E-1,9.842864037E0,-4.908263385E-1
1.544068828E2,9.792584181E-1,9.802161217E0,-1.723877788E-1
1.545069508E2,8.451790214E-1,9.792584419E0,-1.747820675E-1
1.546070085E2,7.733507752E-1,9.826104164E0,-1.987248063E-1
1.547070830E2,9.170072675E-1,9.852440834E0,-2.130904645E-1
1.548071503E2,8.834874034E-1,9.806949615E0,-4.740664065E-1
1.549072176E2,7.709565163E-1,9.845257759E0,-3.471698463E-1
1.550072860E2,7.877163887E-1,9.732727051E0,-1.221080124E-1
1.551073520E2,1.010383964E0,9.787795067E0,-2.537931204E-1
1.552074217E2,9.505270720E-1,9.830892563E0,-3.112557232E-1
1.553074934E2,1.036720991E0,9.785401344E0,-2.609759569E-1
1.554075531E2,9.361614585E-1,9.878777504E0,-2.849186957E-1
1.555076204E2,8.930644989E-1,9.852440834E0,-4.405465722E-1
1.556076876E2,1.094183564E0,9.797372818E0,-2.370332032E-1
1.557077540E2,8.858816624E-1,9.833286285E0,-2.106961906E-1
1.558078230E2,1.036720991E0,9.823709488E0,-4.692778587E-1
1.559078900E2,1.012778282E0,9.811738014E0,-3.974496126E-1
1.560079595E2,9.553156495E-1,9.766246796E0,-2.418217510E-1
1.561080232E2,9.888355136E-1,9.797372818E0,-3.351984620E-1
1.562080897E2,9.409499764E-1,9.811738014E0,-2.609759569E-1
1.563081579E2,1.115732074E0,9.823709488E0,-5.722316504E-1
1.564082250E2,1.029538155E0,9.806949615E0,-5.770202279E-1
1.565082976E2,7.278595567E-1,9.771035194E0,-2.059076279E-1
1.566083518E2,1.007989645E0,9.771035194E0,-1.532335877E-1
1.567084258E2,1.079817891E0,9.775823593E0,-2.561874092E-1
1.568084935E2,9.385557175E-1,9.847652435E0,-2.968900800E-1
1.569085597E2,9.265843630E-1,9.862017632E0,-2.849186957E-1
1.570086263E2,8.691217303E-1,9.804554939E0,-1.101366431E-1
1.571086931E2,1.007989645E0,9.785401344E0,-3.280156553E-1
1.572087615E2,1.098972082E0,9.809344292E0,-3.711125851E-1
1.573088283E2,9.457385540E-1,9.802161217E0,-1.077423692E-1
1.574088957E2,7.422251701E-1,9.842864037E0,-1.532335877E-1
1.575089643E2,9.481328130E-1,9.806949615E0,-1.819648892E-1
1.576090268E2,9.648927450E-1,9.783006668E0,-8.858817071E-2
1.577090968E2,9.074301720E-1,9.850046158E0,-3.974496126E-1
1.578091647E2,8.427847624E-1,9.859623909E0,-4.501236677E-1
1.579092309E2,9.744698405E-1,9.873989105E0,-2.897072434E-1
1.580093039E2,9.505270720E-1,9.840469360E0,-2.897072434E-1
1.581093659E2,9.217957854E-1,9.890748978E0,-3.663240373E-1
1.582094422E2,8.739103079E-1,9.828497887E0,-3.998439014E-1
1.583095000E2,8.715160489E-1,9.823709488E0,-2.968900800E-1
1.584095672E2,9.672870040E-1,9.828497887E0,-2.968900800E-1
1.585096386E2,9.361614585E-1,9.828497887E0,-2.226675600E-1
1.586096928E2,9.481328130E-1,9.830892563E0,-3.256213665E-1
1.587097691E2,9.265843630E-1,9.823709488E0,-2.250618339E-1
1.588098352E2,9.672870040E-1,9.802161217E0,-2.178790122E-1
1.589099041E2,1.039115310E0,9.771035194E0,-1.747820675E-1
1.590099758E2,8.475732803E-1,9.806949615E0,-3.351984620E-1
1.591100368E2,9.720755816E-1,9.749486923E0,-3.519583941E-1
1.592101051E2,1.067846537E0,9.821314812E0,-5.051919818E-1
1.593101703E2,1.103760719E0,9.809344292E0,-3.423812985E-1
1.594102379E2,1.161223292E0,9.761458397E0,-1.915419847E-1
1.595103050E2,1.027143836E0,9.787795067E0,-3.136500120E-1
1.596103681E2,9.840469360E-1,9.845257759E0,-4.285751879E-1
1.597104440E2,1.043903828E0,9.804554939E0,-4.237866402E-1
1.598105066E2,9.840469360E-1,9.821314812E0,-2.921015322E-1
1.599105830E2,9.864411950E-1,9.811738014E0,-2.657645047E-1
1.600106416E2,1.053480864E0,9.809344292E0,-3.878725171E-1
1.601107643E2,9.984126091E-1,9.809344292E0,-3.974496126E-1
1.602108334E2,9.912297726E-1,9.792584419E0,-2.705530524E-1
1.603108979E2,1.060663700E0,9.857229233E0,-3.064671755E-1
1.604109643E2,1.024749637E0,9.785401344E0,-4.046324492E-1
1.605110345E2,9.553156495E-1,9.814132690E0,-3.160442710E-1
1.606110930E2,9.768640995E-1,9.830892563E0,-2.825244367E-1
1.607111659E2,1.010383964E0,9.840469360E0,-3.711125851E-1
1.608112331E2,9.648927450E-1,9.869200706E0,-4.381522834E-1
1.609113012E2,9.457385540E-1,9.852440834E0,-3.016786277E-1
1.610113679E2,8.763045669E-1,9.821314812E0,-3.040728867E-1
1.611114345E2,9.912297726E-1,9.838075638E0,-4.142095447E-1
1.612115022E2,9.241901040E-1,9.826104164E0,-2.178790122E-1
1.613115683E2,9.840469360E-1,9.811738014E0,-2.729473412E-1
1.614116362E2,9.026415944E-1,9.838075638E0,-3.830839694E-1
1.615117033E2,9.409499764E-1,9.826104164E0,-2.897072434E-1
1.616117631E2,9.505270720E-1,9.809344292E0,-1.795706153E-1
1.617118398E2,9.768640995E-1,9.847652435E0,-5.219519138E-1
1.618119053E2,8.882759809E-1,9.806949615E0,-4.716721475E-1
1.619119727E2,9.265843630E-1,9.802161217E0,-3.160442710E-1
1.620120385E2,9.984126091E-1,9.802161217E0,-2.442160249E-1
1.621121060E2,8.954587579E-1,9.811738014E0,-2.011190802E-1
1.622121736E2,9.098244309E-1,9.873989105E0,-4.764606953E-1
1.623122455E2,9.553156495E-1,9.783006668E0,-2.753416002E-1
1.624123072E2,8.691217303E-1,9.823709488E0,-2.777358890E-1
1.625123743E2,1.106154919E0,9.780612946E0,-2.585816681E-1
1.626124347E2,1.036720991E0,9.780612946E0,-3.950553536E-1
1.627125070E2,1.108549237E0,9.816526413E0,-2.968900800E-1
1.628125756E2,1.036720991E0,9.830892563E0,-4.094209969E-1
1.629126429E2,1.146857619E0,9.830892563E0,-4.764606953E-1
1.630127146E2,1.103760719E0,9.823709488E0,-2.873129845E-1
1.631127778E2,1.063058019E0,9.794978142E0,-3.184385598E-1
1.632128437E2,1.142069101E0,9.783006668E0,-5.315290093E-1
1.633129111E2,1.120520592E0,9.773429871E0,-6.177229285E-1
1.634129784E2,1.137280583E0,9.773429871E0,-3.112557232E-1
1.635130466E2,1.177983165E0,9.739910126E0,-3.184385598E-1
1.636131087E2,1.051086664E0,9.723150253E0,-1.245022863E-1
1.637131786E2,1.168406129E0,9.806949615E0,-5.554717779E-1
1.638132456E2,9.864411950E-1,9.888355255E0,-4.525179267E-1
1.639133140E2,1.125309110E0,9.794978142E0,-4.597007632E-1
1.640133810E2,9.720755816E-1,9.785401344E0,-2.561874092E-1
1.641134542E2,1.046298146E0,9.797372818E0,-4.070267081E-1
1.642135153E2,1.115732074E0,9.759063721E0,-5.506832004E-1
1.643135825E2,8.763045669E-1,9.775823593E0,-1.580221355E-1
1.644136552E2,1.036720991E0,9.806949615E0,-1.412622184E-1
1.645137201E2,1.067846537E0,9.792584419E0,-1.316851079E-1
1.646137792E2,9.840469360E-1,9.840469360E0,-3.711125851E-1
1.647138511E2,9.984126091E-1,9.852440834E0,-3.687183261E-1
1.648139196E2,9.696813226E-1,9.790189743E0,-2.083019018E-1
1.649139858E2,1.041509509E0,9.797372818E0,-2.705530524E-1
1.650140519E2,1.108549237E0,9.751881599E0,-1.843591630E-1
1.651141195E2,1.094183564E0,9.787795067E0,-3.160442710E-1
1.652141865E2,1.070240855E0,9.828497887E0,-3.351984620E-1
1.653142552E2,1.058269501E0,9.806949615E0,-2.226675600E-1
1.654143212E2,1.103760719E0,9.809344292E0,-1.819648892E-1
1.655143880E2,1.067846537E0,9.773429871E0,-3.806896806E-1
1.656144490E2,1.115732074E0,9.818921089E0,-6.775797606E-1
1.657145213E2,1.146857619E0,9.850046158E0,-4.070267081E-1
1.658145958E2,1.106154919E0,9.761458397E0,-2.442160249E-1
1.659146564E2,1.031932473E0,9.833286285E0,-2.944957912E-1
1.660147244E2,1.106154919E0,9.840469360E0,-4.213923812E-1
1.661147974E2,1.019961119E0,9.768641472E0,-3.016786277E-1
1.662148647E2,9.313728809E-1,9.809344292E0,-2.298503816E-1
1.663149247E2,1.206714511E0,9.775823593E0,-2.633702159E-1
1.664149957E2,9.960182905E-1,9.792584419E0,-9.577099234E-2
1.665150608E2,9.816526771E-1,9.840469360E0,-2.035133541E-1
1.666151181E2,7.613793612E-1,9.818921089E0,-1.604164094E-1
1.667151931E2,1.060663700E0,9.785401344E0,2.394274808E-3
1.668152629E2,1.007989645E0,9.897932053E0,-4.285751879E-1
1.669153323E2,7.565908432E-1,9.866806030E0,-4.908263385E-1
1.670153988E2,8.810931444E-1,9.794978142E0,-2.106961906E-1
1.671154618E2,1.075029373E0,9.706390381E0,1.508393139E-1
1.672155366E2,9.050358534E-1,9.783006668E0,-4.070267081E-2
1.673155962E2,8.020820618E-1,9.835680962E0,-3.663240373E-1
1.674158242E2,6.967339516E-1,9.842864037E0,-2.059076279E-1
1.675158871E2,8.619389534E-1,9.818921089E0,-1.532335877E-1
1.676159476E2,9.720755816E-1,9.818921089E0,-1.532335877E-1
1.677160199E2,8.954587579E-1,9.830892563E0,-1.723877788E-1
1.678160898E2,9.648927450E-1,9.804554939E0,-1.125309169E-1
1.679161600E2,9.481328130E-1,9.842864037E0,-3.112557232E-1
1.680162229E2,9.601042271E-1,9.790189743E0,-2.106961906E-1
1.681162900E2,9.960182905E-1,9.794978142E0,-1.699935049E-1
1.682163612E2,1.046298146E0,9.730332375E0,-2.322446555E-1
1.683164234E2,8.882759809E-1,9.845257759E0,-3.830839694E-1
1.684164914E2,9.984126091E-1,9.802161217E0,-2.537931204E-1
1.685165586E2,9.696813226E-1,9.771035194E0,-3.304099143E-1
1.686166233E2,1.000806928E0,9.850046158E0,-4.692778587E-1
1.687166917E2,9.864411950E-1,9.806949615E0,-1.963305324E-1
1.688167599E2,9.433442950E-1,9.816526413E0,-2.753416002E-1
1.689168334E2,1.022355318E0,9.850046158E0,-4.094209969E-1
1.690168941E2,9.170072675E-1,9.840469360E0,-1.508393139E-1
1.691169608E2,8.810931444E-1,9.737515450E0,-8.858817071E-2
1.692170275E2,7.494080067E-1,9.902720451E0,-4.597007632E-1
1.693170955E2,1.055875182E0,9.785401344E0,-2.633702159E-1
1.694171617E2,8.810931444E-1,9.797372818E0,-1.843591630E-1
1.695172304E2,8.212362528E-1,9.797372818E0,-1.819648892E-1
1.696172956E2,9.577099085E-1,9.794978142E0,-5.027977228E-1
1.697173641E2,7.063110471E-1,9.802161217E0,-3.423812985E-1
1.698174374E2,8.308133483E-1,9.821314812E0,-2.298503816E-1
1.699174981E2,1.010383964E0,9.814132690E0,-2.801301479E-1
1.700175696E2,7.781392932E-1,9.814132690E0,-2.106961906E-1
1.701176320E2,9.217957854E-1,9.816526413E0,-2.729473412E-1
1.702176993E2,8.188419938E-1,9.823709488E0,-3.423812985E-1
1.703177665E2,8.763045669E-1,9.804554939E0,-1.412622184E-1
1.704178351E2,9.912297726E-1,9.845257759E0,-2.825244367E-1
1.705178996E2,9.241901040E-1,9.840469360E0,-2.873129845E-1
1.706179673E2,9.553156495E-1,9.862017632E0,-2.849186957E-1
1.707180347E2,9.984126091E-1,9.840469360E0,-3.016786277E-1
1.708181027E2,1.087000728E0,9.799766541E0,-3.208328187E-1
1.709181761E2,9.984126091E-1,9.799766541E0,-3.399870098E-1
1.710182382E2,1.063058019E0,9.794978142E0,-4.046324492E-1
1.711183033E2,9.577099085E-1,9.785401344E0,-3.447755575E-1
1.712183749E2,1.036720991E0,9.821314812E0,-3.351984620E-1
1.713184375E2,1.063058019E0,9.869200706E0,-5.219519138E-1
1.714185049E2,1.051086664E0,9.744698524E0,-1.652049571E-1
1.715185721E2,9.768640995E-1,9.818921089E0,-1.843591630E-1
1.716186351E2,1.048692346E0,9.785401344E0,-4.357580245E-1
1.717187055E2,9.098244309E-1,9.806949615E0,-5.195576549E-1
1.718187725E2,1.192348838E0,9.847652435E0,-3.591412306E-1
1.719188411E2,1.022355318E0,9.902720451E0,-4.261809289E-1
1.720189071E2,7.972934842E-1,9.783006668E0,-8.858817071E-2
1.721189760E2,9.313728809E-1,9.840469360E0,-2.394274771E-1
1.722190431E2,9.529213905E-1,9.818921089E0,-1.987248063E-1
1.723191085E2,1.053480864E0,9.814132690E0,-2.657645047E-1
1.724191759E2,8.188419938E-1,9.845257759E0,-2.250618339E-1
1.725192470E2,8.212362528E-1,9.838075638E0,-2.585816681E-1
1.726193057E2,1.034326673E0,9.838075638E0,-2.873129845E-1
1.727193781E2,8.236305118E-1,9.847652435E0,-1.532335877E-1
1.728194454E2,9.265843630E-1,9.809344292E0,-1.245022863E-1
1.729195124E2,8.882759809E-1,9.799766541E0,-3.591412306E-1
1.730195788E2,8.906702399E-1,9.823709488E0,-4.860377908E-1
1.731196467E2,7.757450342E-1,9.876383781E0,-2.202732861E-1
1.732197127E2,9.122186899E-1,9.885960579E0,-2.849186957E-1
1.733197799E2,7.158881426E-1,9.881172180E0,-2.250618339E-1
1.734198472E2,8.739103079E-1,9.850046158E0,-3.687183261E-1
1.735199164E2,8.212362528E-1,9.802161217E0,-2.298503816E-1
1.736199784E2,8.475732803E-1,9.804554939E0,-1.556278616E-1
1.737200500E2,8.834874034E-1,9.847652435E0,-2.418217510E-1
1.738201161E2,9.912297726E-1,9.804554939E0,-1.149251908E-1
1.739201888E2,9.337671995E-1,9.835680962E0,-2.274561077E-1
1.740202575E2,9.864411950E-1,9.852440834E0,-2.202732861E-1
1.741203181E2,9.505270720E-1,9.773429871E0,-9.098244458E-2
1.742203856E2,1.065452337E0,9.814132690E0,-2.130904645E-1
1.743204519E2,9.816526771E-1,9.873989105E0,-2.992843390E-1
1.744205175E2,9.768640995E-1,9.790189743E0,-2.130904645E-1
1.745205869E2,1.075029373E0,9.811738014E0,-2.106961906E-1
1.746206532E2,1.051086664E0,9.773429871E0,-3.064671755E-1
1.747207253E2,9.529213905E-1,9.794978142E0,-1.723877788E-1
1.748209000E2,9.577099085E-1,9.850046158E0,-2.202732861E-1
1.749209703E2,1.039115310E0,9.804554939E0,-2.130904645E-1
1.750210336E2,9.744698405E-1,9.845257759E0,-2.921015322E-1
1.751211015E2,1.017566800E0,9.787795067E0,-1.795706153E-1
1.752211804E2,9.912297726E-1,9.799766541E0,-4.142095447E-1
1.753212358E2,9.936240315E-1,9.826104164E0,-5.267404318E-1
1.754213083E2,9.936240315E-1,9.838075638E0,-3.687183261E-1
1.755213691E2,9.122186899E-1,9.871595383E0,-4.261809289E-1
1.756214320E2,8.547561169E-1,9.864412308E0,-1.245022863E-1
1.757215041E2,9.696813226E-1,9.816526413E0,-2.801301479E-1
1.758215707E2,9.337671995E-1,9.792584419E0,-2.274561077E-1
1.759216384E2,1.046298146E0,9.785401344E0,-2.466102988E-1
1.760217055E2,9.170072675E-1,9.840469360E0,-1.699935049E-1
1.761217722E2,9.122186899E-1,9.840469360E0,-2.346389294E-1
1.762218396E2,1.007989645E0,9.790189743E0,-2.897072434E-1
1.763219093E2,9.361614585E-1,9.794978142E0,-1.053480953E-1
1.764219744E2,8.332076073E-1,9.835680962E0,-2.657645047E-1
1.765220415E2,8.140534163E-1,9.828497887E0,-1.628106833E-1
1.766221071E2,8.260248303E-1,9.838075638E0,-1.532335877E-1
1.767221751E2,7.613793612E-1,9.854835510E0,-2.873129845E-1
1.768222418E2,7.948992252E-1,9.850046158E0,-2.130904645E-1
1.769223099E2,8.715160489E-1,9.838075638E0,-2.298503816E-1
1.770223766E2,8.140534163E-1,9.828497887E0,-2.274561077E-1
1.771224464E2,7.781392932E-1,9.809344292E0,-2.657645047E-1
1.772225108E2,7.709565163E-1,9.838075638E0,-2.394274771E-1
1.773225829E2,7.733507752E-1,9.847652435E0,-2.729473412E-1
1.774226445E2,8.691217303E-1,9.809344292E0,-2.537931204E-1
1.775227153E2,8.092648983E-1,9.830892563E0,-2.944957912E-1
1.776227742E2,7.829278708E-1,9.809344292E0,-3.280156553E-1
1.777228469E2,8.212362528E-1,9.792584419E0,-1.795706153E-1
1.778229134E2,8.739103079E-1,9.862017632E0,-4.956148863E-1
1.779229808E2,7.637736797E-1,9.917086601E0,-5.985686779E-1
1.780230481E2,8.260248303E-1,9.909903526E0,-4.381522834E-1
1.781231147E2,8.068706393E-1,9.890748978E0,-3.399870098E-1
1.782231827E2,7.972934842E-1,9.792584419E0,-1.747820675E-1
1.783232487E2,8.451790214E-1,9.845257759E0,-3.112557232E-1
1.784233160E2,8.882759809E-1,9.780612946E0,-1.436564922E-1
1.785233828E2,8.882759809E-1,9.816526413E0,-1.963305324E-1
1.786234466E2,1.096577883E0,9.773429871E0,-2.370332032E-1
1.787235175E2,1.120520592E0,9.792584419E0,-3.088614643E-1
1.788235849E2,1.103760719E0,9.814132690E0,-3.591412306E-1
1.789236521E2,1.134886265E0,9.816526413E0,-4.118152559E-1
1.790237185E2,1.201925993E0,9.806949615E0,-3.232271075E-1
1.791237866E2,1.139674783E0,9.845257759E0,-5.075862408E-1
1.792238523E2,1.108549237E0,9.809344292E0,-6.273000240E-1
1.793239202E2,1.209108829E0,9.792584419E0,-4.716721475E-1
1.794239863E2,1.237840056E0,9.780612946E0,-3.735068738E-1
1.795240607E2,1.063058019E0,9.747093201E0,-2.490045726E-1
1.796241177E2,1.154040456E0,9.802161217E0,-3.926610649E-1
1.797241888E2,9.601042271E-1,9.797372818E0,-3.423812985E-1
1.798242606E2,1.209108829E0,9.790189743E0,-3.998439014E-1
1.799243229E2,9.696813226E-1,9.816526413E0,-4.860377908E-1
1.800243901E2,9.385557175E-1,9.771035194E0,-2.394274771E-1
1.801244579E2,8.978530765E-1,9.799766541E0,-3.040728867E-1
1.802245251E2,9.409499764E-1,9.821314812E0,-4.189980924E-1
1.803245907E2,8.954587579E-1,9.821314812E0,-3.950553536E-1
1.804246596E2,9.864411950E-1,9.809344292E0,-3.615354896E-1
1.805247251E2,9.074301720E-1,9.847652435E0,-3.016786277E-1
1.806247920E2,8.691217303E-1,9.811738014E0,-4.166038036E-1
1.807248596E2,7.877163887E-1,9.823709488E0,-1.149251908E-1
1.808249272E2,8.834874034E-1,9.814132690E0,-2.178790122E-1
1.809250005E2,1.029538155E0,9.773429871E0,-2.657645047E-1
1.810250611E2,8.116591573E-1,9.835680962E0,-4.884320498E-1
1.811251345E2,8.882759809E-1,9.857229233E0,-4.549122155E-1
1.812251967E2,9.337671995E-1,9.871595383E0,-3.639297783E-1
1.813252628E2,8.427847624E-1,9.835680962E0,-1.388679445E-1
1.814253392E2,1.072635174E0,9.806949615E0,-2.537931204E-1
1.815253964E2,9.481328130E-1,9.804554939E0,-2.609759569E-1
1.816254658E2,9.601042271E-1,9.833286285E0,-2.561874092E-1
1.817255369E2,9.792584181E-1,9.833286285E0,-2.921015322E-1
1.818255993E2,1.019961119E0,9.790189743E0,-2.513988614E-1
1.819256653E2,1.024749637E0,9.838075638E0,-3.112557232E-1
1.820257323E2,1.149251938E0,9.768641472E0,-4.812492430E-1
1.821258078E2,1.091789365E0,9.773429871E0,-4.070267081E-1
1.822259845E2,1.077423692E0,9.818921089E0,-3.663240373E-1
1.823260501E2,1.091789365E0,9.751881599E0,-4.692778587E-1
1.824261121E2,1.094183564E0,9.794978142E0,-2.968900800E-1
1.825261791E2,1.134886265E0,9.809344292E0,-3.878725171E-1
1.826262443E2,1.091789365E0,9.799766541E0,-4.692778587E-1
1.827263139E2,1.089395046E0,9.818921089E0,-4.812492430E-1
1.828263821E2,1.055875182E0,9.780612946E0,-4.285751879E-1
1.829264496E2,1.019961119E0,9.763853073E0,-4.142095447E-1
1.830265146E2,1.173194647E0,9.775823593E0,-4.094209969E-1
1.831265822E2,1.094183564E0,9.811738014E0,-4.429408312E-1
1.832266493E2,1.125309110E0,9.790189743E0,-4.118152559E-1
1.833267168E2,9.648927450E-1,9.821314812E0,-3.112557232E-1
1.834267836E2,8.930644989E-1,9.797372818E0,-1.963305324E-1
1.835268584E2,1.173194647E0,9.835680962E0,-3.687183261E-1
1.836269157E2,9.289786220E-1,9.811738014E0,-3.902668059E-1
1.837269853E2,9.026415944E-1,9.763853073E0,-1.819648892E-1
1.838270525E2,9.505270720E-1,9.845257759E0,-4.261809289E-1
1.839271197E2,1.046298146E0,9.727938652E0,-4.285751879E-1
1.840271897E2,1.003201127E0,9.814132690E0,-6.153286099E-1
1.841272535E2,9.289786220E-1,9.866806030E0,-4.046324492E-1
1.842273249E2,9.481328130E-1,9.771035194E0,-1.795706153E-1
1.843273880E2,1.084606528E0,9.814132690E0,-3.280156553E-1
1.844274550E2,9.792584181E-1,9.785401344E0,-3.447755575E-1
1.845275221E2,9.936240315E-1,9.804554939E0,-4.022381604E-1
1.846275893E2,9.960182905E-1,9.804554939E0,-1.771763414E-1
1.847276568E2,1.019961119E0,9.809344292E0,-2.705530524E-1
1.848277283E2,9.361614585E-1,9.811738014E0,-3.902668059E-1
1.849277906E2,1.046298146E0,9.763853073E0,-3.950553536E-1
1.850278607E2,1.201925993E0,9.790189743E0,-5.842030644E-1
1.851279248E2,1.029538155E0,9.804554939E0,-5.578660369E-1
1.852279964E2,1.048692346E0,9.794978142E0,-5.267404318E-1
1.853280592E2,9.409499764E-1,9.778218269E0,-3.759011328E-1
1.854281266E2,1.259388566E0,9.766246796E0,-5.530774593E-1
1.855281976E2,1.087000728E0,9.792584419E0,-3.854782581E-1
1.856282569E2,1.007989645E0,9.792584419E0,-4.237866402E-1
1.857283273E2,1.091789365E0,9.806949615E0,-5.219519138E-1
1.858283947E2,9.816526771E-1,9.804554939E0,-2.657645047E-1
1.859284665E2,1.079817891E0,9.814132690E0,-4.333637357E-1
1.860285289E2,1.063058019E0,9.811738014E0,-3.878725171E-1
1.861285964E2,1.041509509E0,9.761458397E0,-3.639297783E-1
1.862286624E2,1.055875182E0,9.790189743E0,-3.016786277E-1
1.863287357E2,1.120520592E0,9.783006668E0,-2.657645047E-1
1.864287972E2,1.029538155E0,9.778218269E0,-4.788549542E-1
1.865288640E2,9.409499764E-1,9.792584419E0,-5.435003638E-1
1.866289274E2,1.063058019E0,9.806949615E0,-3.830839694E-1
1.867289982E2,1.082212210E0,9.756669998E0,-1.532335877E-1
1.868290664E2,1.137280583E0,9.747093201E0,-3.639297783E-1
1.869291396E2,1.058269501E0,9.821314812E0,-3.974496126E-1
1.870292002E2,9.816526771E-1,9.794978142E0,-2.394274771E-1
1.871292687E2,1.005595446E0,9.804554939E0,-2.609759569E-1
1.872293335E2,9.864411950E-1,9.850046158E0,-4.309694767E-1
1.873294017E2,8.739103079E-1,9.826104164E0,-2.130904645E-1
1.874294683E2,9.385557175E-1,9.814132690E0,-2.178790122E-1
1.875295347E2,9.864411950E-1,9.857229233E0,-4.357580245E-1
1.876295964E2,9.241901040E-1,9.830892563E0,-3.016786277E-1
1.877296710E2,9.170072675E-1,9.833286285E0,-3.615354896E-1
1.878297379E2,8.379961848E-1,9.818921089E0,-1.412622184E-1
1.879298037E2,1.089395046E0,9.725543976E0,-2.442160249E-1
1.880298710E2,8.571503758E-1,9.842864037E0,-5.123748183E-1
1.881299383E2,9.409499764E-1,9.862017632E0,-4.261809289E-1
1.882300099E2,8.882759809E-1,9.809344292E0,-3.399870098E-1
1.883300800E2,1.031932473E0,9.785401344E0,-3.519583941E-1
1.884301439E2,9.816526771E-1,9.818921089E0,-4.166038036E-1
1.885302079E2,8.858816624E-1,9.826104164E0,-3.663240373E-1
1.886302688E2,8.834874034E-1,9.806949615E0,-4.070267081E-1
1.887303426E2,8.858816624E-1,9.828497887E0,-3.160442710E-1
1.888304078E2,1.065452337E0,9.811738014E0,-3.759011328E-1
1.889304758E2,1.046298146E0,9.754275322E0,-3.471698463E-1
1.890305427E2,9.529213905E-1,9.794978142E0,-2.490045726E-1
1.891306109E2,1.019961119E0,9.809344292E0,-3.016786277E-1
1.892306770E2,9.577099085E-1,9.818921089E0,-3.112557232E-1
1.893307498E2,9.888355136E-1,9.799766541E0,-3.304099143E-1
1.894308139E2,9.888355136E-1,9.818921089E0,-1.963305324E-1
1.895308803E2,1.005595446E0,9.804554939E0,-2.585816681E-1
1.896310533E2,1.096577883E0,9.821314812E0,-4.070267081E-1
1.897311292E2,1.039115310E0,9.806949615E0,-2.849186957E-1
1.898311939E2,1.046298146E0,9.804554939E0,-4.477293789E-1
1.899312711E2,1.087000728E0,9.818921089E0,-4.213923812E-1
1.900313286E2,1.005595446E0,9.749486923E0,-2.992843390E-1
1.901313965E2,9.481328130E-1,9.854835510E0,-6.081457734E-1
1.902314626E2,1.137280583E0,9.814132690E0,-7.901107073E-1
1.903315303E2,1.154040456E0,9.792584419E0,-3.663240373E-1
1.904315972E2,1.077423692E0,9.785401344E0,-3.759011328E-1
1.905316639E2,1.024749637E0,9.763853073E0,-4.932205975E-1
1.906317291E2,1.029538155E0,9.809344292E0,-5.243461728E-1
1.907317990E2,1.043903828E0,9.799766541E0,-4.285751879E-1
1.908318655E2,1.101366401E0,9.780612946E0,-3.543526828E-1
1.909319333E2,1.070240855E0,9.797372818E0,-5.099805593E-1
1.910320018E2,1.108549237E0,9.818921089E0,-4.261809289E-1
1.911320665E2,1.110943556E0,9.780612946E0,-5.698373914E-1
1.912321339E2,9.888355136E-1,9.785401344E0,-4.118152559E-1
1.913322012E2,1.151646137E0,9.802161217E0,-5.075862408E-1
1.914322684E2,9.505270720E-1,9.799766541E0,-4.237866402E-1
1.915323348E2,1.089395046E0,9.783006668E0,-4.740664065E-1
1.916323967E2,1.005595446E0,9.794978142E0,-5.004034638E-1
1.917324686E2,1.003201127E0,9.809344292E0,-4.405465722E-1
1.918325371E2,1.058269501E0,9.821314812E0,-5.219519138E-1
1.919326043E2,1.036720991E0,9.780612946E0,-3.519583941E-1
1.920326710E2,1.024749637E0,9.792584419E0,-4.812492430E-1
1.921327376E2,1.106154919E0,9.816526413E0,-5.243461728E-1
1.922328085E2,1.067846537E0,9.754275322E0,-5.818088055E-1
1.923328720E2,1.007989645E0,9.799766541E0,-4.501236677E-1
1.924329397E2,1.051086664E0,9.806949615E0,-4.836435020E-1
1.925330077E2,1.029538155E0,9.763853073E0,-4.884320498E-1
1.926330716E2,1.039115310E0,9.802161217E0,-6.799740195E-1
1.927331469E2,1.005595446E0,9.749486923E0,-4.046324492E-1
1.928332079E2,1.051086664E0,9.794978142E0,-4.573064744E-1
1.929332750E2,1.082212210E0,9.778218269E0,-4.213923812E-1
1.930333416E2,1.017566800E0,9.794978142E0,-4.453351200E-1
1.931334091E2,1.036720991E0,9.821314812E0,-4.381522834E-1
1.932334763E2,1.067846537E0,9.785401344E0,-4.860377908E-1
1.933335433E2,1.019961119E0,9.828497887E0,-5.243461728E-1
1.934336103E2,9.936240315E-1,9.778218269E0,-3.495641351E-1
1.935336776E2,1.051086664E0,9.804554939E0,-4.860377908E-1
1.936337368E2,1.036720991E0,9.785401344E0,-3.543526828E-1
1.937338103E2,9.146129489E-1,9.756669998E0,-2.705530524E-1
1.938338791E2,9.864411950E-1,9.838075638E0,-4.908263385E-1
1.939339462E2,1.079817891E0,9.790189743E0,-3.351984620E-1
1.940340226E2,9.002473354E-1,9.792584419E0,-2.705530524E-1
1.941340800E2,9.361614585E-1,9.816526413E0,-3.902668059E-1
1.942341485E2,9.792584181E-1,9.785401344E0,-3.399870098E-1
1.943342157E2,1.022355318E0,9.806949615E0,-1.747820675E-1
1.944342817E2,9.170072675E-1,9.792584419E0,-5.506832004E-1
1.945343488E2,9.241901040E-1,9.809344292E0,-6.536370516E-1
1.946344103E2,9.936240315E-1,9.835680962E0,-6.153286099E-1
1.947344841E2,1.043903828E0,9.816526413E0,-4.668835998E-1
1.948345516E2,1.003201127E0,9.763853073E0,-3.136500120E-1
1.949346181E2,1.077423692E0,9.780612946E0,-2.729473412E-1
1.950346847E2,1.029538155E0,9.799766541E0,-3.112557232E-1
1.951347523E2,1.036720991E0,9.768641472E0,-2.394274771E-1
1.952348204E2,1.087000728E0,9.816526413E0,-3.615354896E-1
1.953348858E2,1.115732074E0,9.818921089E0,-3.687183261E-1
1.954349527E2,1.072635174E0,9.806949615E0,-4.070267081E-1
1.955350204E2,1.041509509E0,9.833286285E0,-3.591412306E-1
1.956350795E2,1.120520592E0,9.780612946E0,-2.011190802E-1
1.957351558E2,1.106154919E0,9.854835510E0,-5.794144869E-1
1.958352220E2,1.041509509E0,9.802161217E0,-4.692778587E-1
1.959352899E2,1.084606528E0,9.785401344E0,-4.381522834E-1
1.960353558E2,1.130097747E0,9.814132690E0,-1.891477108E-1
1.961354225E2,9.840469360E-1,9.785401344E0,-1.723877788E-1
1.962354907E2,1.108549237E0,9.809344292E0,-3.950553536E-1
1.963355687E2,1.084606528E0,9.799766541E0,-2.418217510E-1
1.964356249E2,9.505270720E-1,9.806949615E0,-3.998439014E-1
1.965356913E2,1.230657220E0,9.862017632E0,-4.980091453E-1
1.966357535E2,9.936240315E-1,9.826104164E0,-2.968900800E-1
1.967358284E2,9.768640995E-1,9.814132690E0,-3.328042030E-1
1.968358925E2,7.470137477E-1,9.840469360E0,-3.854782581E-1
1.969359610E2,9.241901040E-1,9.835680962E0,-3.759011328E-1
1.970361409E2,8.763045669E-1,9.785401344E0,-1.795706153E-1
1.971362076E2,9.505270720E-1,9.821314812E0,-5.626545548E-1
1.972362747E2,8.020820618E-1,9.866806030E0,-5.746259689E-1
1.973363418E2,8.715160489E-1,9.912297249E0,-5.626545548E-1
1.974364096E2,1.110943556E0,9.838075638E0,-2.825244367E-1
1.975364760E2,7.541965842E-1,9.783006668E0,-9.098244458E-2
1.976365373E2,8.667274714E-1,9.883566856E0,-2.968900800E-1
1.977366103E2,7.661679387E-1,9.787795067E0,-3.351984620E-1
1.978366774E2,1.031932473E0,9.823709488E0,-3.184385598E-1
1.979367446E2,9.098244309E-1,9.823709488E0,-2.490045726E-1
1.980368114E2,7.901107073E-1,9.830892563E0,-2.106961906E-1
1.981368789E2,9.601042271E-1,9.823709488E0,-5.794144869E-1
1.982369458E2,1.039115310E0,9.783006668E0,-6.177229285E-1
1.983370140E2,9.553156495E-1,9.756669998E0,-1.101366431E-1
1.984370802E2,1.091789365E0,9.783006668E0,-2.897072434E-1
1.985371479E2,1.005595446E0,9.792584419E0,-2.729473412E-1
1.986372080E2,9.409499764E-1,9.847652435E0,-3.759011328E-1
1.987372813E2,1.034326673E0,9.783006668E0,-3.423812985E-1
1.988373494E2,1.012778282E0,9.747093201E0,-3.375927508E-1
1.989374155E2,9.840469360E-1,9.828497887E0,-4.549122155E-1
1.990374832E2,1.089395046E0,9.790189743E0,-3.519583941E-1
1.991375497E2,9.840469360E-1,9.778218269E0,-4.285751879E-1
1.992376171E2,8.954587579E-1,9.809344292E0,-2.873129845E-1
1.993376848E2,9.217957854E-1,9.845257759E0,-3.471698463E-1
1.994377513E2,9.936240315E-1,9.792584419E0,-3.232271075E-1
1.995378185E2,8.763045669E-1,9.732727051E0,-4.908263385E-1
1.996378776E2,9.385557175E-1,9.878777504E0,-6.967339516E-1
1.997379570E2,1.060663700E0,9.804554939E0,-3.184385598E-1
1.998380197E2,8.906702399E-1,9.830892563E0,-3.351984620E-1
1.999380873E2,9.146129489E-1,9.802161217E0,-3.974496126E-1
2.000381542E2,8.212362528E-1,9.816526413E0,-3.328042030E-1
2.001382217E2,8.906702399E-1,9.818921089E0,-4.046324492E-1
2.002382882E2,8.068706393E-1,9.783006668E0,-3.543526828E-1
2.003383562E2,8.571503758E-1,9.816526413E0,-1.580221355E-1
2.004384224E2,1.041509509E0,9.778218269E0,-3.232271075E-1
2.005384901E2,7.541965842E-1,9.794978142E0,-4.884320498E-1
2.006385489E2,8.643332124E-1,9.850046158E0,-4.884320498E-1
2.007386242E2,8.547561169E-1,9.792584419E0,-3.471698463E-1
2.008386915E2,1.017566800E0,9.804554939E0,-2.944957912E-1
2.009387584E2,9.577099085E-1,9.816526413E0,-2.753416002E-1
2.010388250E2,9.122186899E-1,9.804554939E0,-2.729473412E-1
2.011388922E2,9.361614585E-1,9.821314812E0,-3.543526828E-1
2.012389599E2,9.553156495E-1,9.816526413E0,-3.280156553E-1
2.013390263E2,9.720755816E-1,9.787795067E0,-3.040728867E-1
2.014390931E2,1.067846537E0,9.792584419E0,-4.189980924E-1
2.015391607E2,9.577099085E-1,9.811738014E0,-4.309694767E-1
2.016392206E2,9.098244309E-1,9.802161217E0,-2.921015322E-1
2.017392958E2,9.624984860E-1,9.799766541E0,-3.471698463E-1
2.018393621E2,1.022355318E0,9.804554939E0,-3.447755575E-1
2.019394293E2,9.241901040E-1,9.809344292E0,-4.956148863E-1
2.020395007E2,9.840469360E-1,9.783006668E0,-5.985686779E-1
2.021395643E2,9.864411950E-1,9.845257759E0,-5.147690773E-1
2.022396307E2,1.067846537E0,9.792584419E0,-3.878725171E-1
2.023396962E2,9.792584181E-1,9.802161217E0,-3.423812985E-1
2.024397649E2,9.696813226E-1,9.821314812E0,-4.309694767E-1
2.025398342E2,8.978530765E-1,9.847652435E0,-4.166038036E-1
2.026398910E2,9.433442950E-1,9.806949615E0,-4.453351200E-1
2.027399662E2,1.039115310E0,9.814132690E0,-3.926610649E-1
2.028400340E2,9.098244309E-1,9.821314812E0,-2.322446555E-1
2.029401063E2,8.379961848E-1,9.771035194E0,-9.816526622E-2
2.030401677E2,9.553156495E-1,9.792584419E0,-1.628106833E-1
2.031402346E2,8.715160489E-1,9.787795067E0,-1.245022863E-1
2.032403024E2,9.792584181E-1,9.890748978E0,-4.357580245E-1
2.033403706E2,8.068706393E-1,9.818921089E0,-4.477293789E-1
2.034404370E2,9.840469360E-1,9.778218269E0,-2.490045726E-1
2.035405024E2,1.007989645E0,9.806949615E0,-2.442160249E-1
2.036405621E2,9.624984860E-1,9.804554939E0,-2.490045726E-1
2.037406371E2,8.978530765E-1,9.797372818E0,-3.878725171E-1
2.038407042E2,9.146129489E-1,9.797372818E0,-2.346389294E-1
2.039407718E2,1.060663700E0,9.792584419E0,-2.801301479E-1
2.040408385E2,1.029538155E0,9.821314812E0,-3.615354896E-1
2.041409111E2,9.624984860E-1,9.766246796E0,-2.537931204E-1
2.042409729E2,1.060663700E0,9.792584419E0,-2.825244367E-1
2.043410475E2,9.194015265E-1,9.859623909E0,-3.759011328E-1
2.044412109E2,1.063058019E0,9.804554939E0,-3.064671755E-1
