"Time (s)","Gyroscope x (rad/s)","Gyroscope y (rad/s)","Gyroscope z (rad/s)"
2.634662770E-1,-2.478158101E-2,6.640105275E-4,3.552181413E-3
3.635347260E-1,-9.509949945E-3,-7.277237717E-3,-1.130100718E-4
4.636012400E-1,-3.577715531E-2,-9.720697999E-3,3.552181413E-3
5.636677220E-1,-1.745119877E-2,-3.001180943E-3,1.108720433E-3
6.637351690E-1,-3.401297610E-3,-1.033156365E-2,1.719585620E-3
7.638017160E-1,-6.143349409E-2,4.329202231E-3,1.271515992E-2
8.638700630E-1,-3.333369270E-2,5.550932605E-3,1.271515992E-2
9.639346770E-1,-1.622946747E-2,-9.109833278E-3,-2.556471154E-3
1.063999526E0,-7.677354384E-3,-1.155329403E-2,-1.130100718E-4
1.164068636E0,-2.600331046E-2,-8.498968557E-3,4.163046833E-3
1.264132550E0,-9.509949945E-3,-1.277502440E-2,5.995642394E-3
1.364206766E0,-2.172725461E-2,6.772662979E-3,1.719585620E-3
1.464277014E0,-3.883148357E-2,1.410304569E-2,2.187814005E-2
1.564339963E0,2.707354724E-3,-6.055507343E-3,2.248900384E-2
1.664406645E0,-1.439687237E-2,1.885741018E-3,1.699121669E-2
1.764472793E0,-1.684033312E-2,4.329202231E-3,1.699121669E-2
1.864540109E0,-7.066489197E-3,1.885741018E-3,1.515862066E-2
1.964608655E0,-2.111639082E-2,1.274875714E-3,3.165198490E-2
2.064675006E0,-3.469714429E-4,-2.390315756E-3,1.271515992E-2
2.164741087E0,-1.195341069E-2,-1.582935080E-2,9.049968794E-3
2.264809400E0,1.553552505E-2,-3.001180943E-3,1.515862066E-2
2.364876215E0,3.929085098E-3,3.107471392E-3,1.760208048E-2
2.464945261E0,3.935926780E-2,-2.682492696E-2,2.493246458E-2
2.565014075E0,3.935926780E-2,-6.055507343E-3,2.065640874E-2
2.665077755E0,-4.623028450E-3,2.496606437E-3,1.027169917E-2
2.765145102E0,1.553552505E-2,1.274875714E-3,2.432160079E-2
2.865218550E0,5.150815938E-3,-8.498968557E-3,2.248900384E-2
2.965280496E0,1.675725542E-2,-2.132713981E-2,2.981938794E-2
3.065345609E0,-9.578366880E-4,-4.833776504E-3,2.798679098E-2
3.165419391E0,-2.179567004E-3,3.107471392E-3,1.271515992E-2
3.265485940E0,-6.455624010E-3,1.274875714E-3,1.271515992E-2
3.365547855E0,3.929085098E-3,-1.779450453E-3,2.493246458E-2
3.465615471E0,-9.509949945E-3,-4.222911317E-3,2.554333024E-2
3.565681284E0,-9.509949945E-3,-2.071627229E-2,2.676505968E-2
3.665749264E0,-1.568701933E-3,4.940067418E-3,2.065640874E-2
3.765816345E0,-2.539244667E-2,9.216123261E-3,1.454775594E-2
3.865883025E0,-6.455624010E-3,-5.577199627E-4,2.187814005E-2
3.965950038E0,-7.677354384E-3,-7.888102904E-3,2.248900384E-2
4.066016718E0,-1.256427635E-2,-7.277237717E-3,2.676505968E-2
4.166083231E0,1.003773790E-2,-7.888102904E-3,4.142582789E-2
4.266315970E0,-9.578366880E-4,-3.001180943E-3,2.859765664E-2
4.366383851E0,-8.288219571E-3,2.448775433E-2,3.470630944E-2
4.466450533E0,-2.179567004E-3,2.448775433E-2,3.409544379E-2
4.566517881E0,-2.790432423E-3,1.885741018E-3,2.676505968E-2
4.666584792E0,1.309206430E-2,-7.277237717E-3,3.409544379E-2
4.766651973E0,2.775282972E-2,-2.560319565E-2,4.142582789E-2
4.866719120E0,5.707436055E-2,-3.659877181E-2,3.348457813E-2
4.966786068E0,2.347677201E-2,-2.377059869E-2,3.714976832E-2
5.066853413E0,2.897455916E-2,-2.071627229E-2,3.714976832E-2
5.166925360E0,1.125946827E-2,8.605258539E-3,3.287371621E-2
5.266988541E0,5.761681125E-3,-9.720697999E-3,2.554333024E-2
5.367054420E0,2.714196406E-2,-4.209655896E-2,3.287371621E-2
5.467121901E0,1.553552505E-2,-1.277502440E-2,2.798679098E-2
5.567188016E0,2.347677201E-2,-2.926838771E-2,3.043025173E-2
5.667255466E0,8.205141872E-3,-2.377059869E-2,4.509101808E-2
5.767323182E0,2.653109841E-2,-4.270742089E-2,3.776063398E-2
5.867390629E0,-6.455624010E-3,-3.171184659E-2,3.653890640E-2
5.967457643E0,1.370292995E-2,1.654650643E-2,3.348457813E-2
6.067525191E0,8.205141872E-3,-4.392915219E-2,3.287371621E-2
6.167590874E0,-2.179567004E-3,-2.010540850E-2,4.509101808E-2
6.267657788E0,1.736812107E-2,-2.560319565E-2,4.142582789E-2
6.367726302E0,1.553552505E-2,-3.293357790E-2,3.470630944E-2
6.467793850E0,8.205141872E-3,-4.820520803E-2,4.203669354E-2
6.567861763E0,1.492465939E-2,-6.103337929E-2,3.226284683E-2
6.667927376E0,-5.233893171E-3,-1.827281155E-2,5.181053653E-2
6.767994624E0,1.248119865E-2,-4.270742089E-2,2.004554309E-2
6.868061437E0,-9.578366880E-4,-7.277237717E-3,4.142582789E-2
6.968128421E0,-5.233893171E-3,-2.560319565E-2,2.676505968E-2
7.068195801E0,6.983411498E-3,-7.997019589E-2,4.386929050E-2
7.168261748E0,3.997013345E-2,-2.254886739E-2,5.669745803E-2
7.268329229E0,6.135041639E-2,-1.050156802E-1,6.586043537E-2
7.368396842E0,2.286590822E-2,-8.241366595E-2,7.929947227E-2
7.468464256E0,5.768522620E-2,-7.325068861E-2,8.113206178E-2
7.568531536E0,1.003773790E-2,-3.476617485E-2,5.119966716E-2
7.668598580E0,2.638937731E-4,8.605258539E-3,4.875621200E-2
7.768666426E0,-1.989465952E-2,-2.682492696E-2,1.943467744E-2
7.868733075E0,1.309206430E-2,-3.232271224E-2,2.432160079E-2
7.968800022E0,2.347677201E-2,2.632035129E-2,1.760208048E-2
8.068866638E0,-2.417071536E-2,3.242900595E-2,-1.334740547E-3
8.168934253E0,-2.417071536E-2,3.242900595E-2,4.163046833E-3
8.269003366E0,-1.439687237E-2,4.037025198E-2,7.217372768E-3
8.369073346E0,-2.844677307E-2,3.853765503E-2,-3.778201528E-3
8.469135426E0,-1.684033312E-2,-6.055507343E-3,4.773912020E-3
8.569202542E0,-8.098118752E-2,1.020676419E-1,-5.936693773E-2
8.669268890E0,-1.353481859E-1,9.595899284E-2,-6.608645618E-2
8.769338404E0,3.752667084E-2,-2.560319565E-2,-4.287357628E-2
8.869404186E0,6.379388273E-2,-5.125953630E-2,5.242140219E-2
8.969472032E0,2.096489538E-3,-6.055507343E-3,1.515862066E-2
9.069538214E0,-1.622946747E-2,1.227045059E-2,8.439103141E-3
9.169603827E0,-2.179567004E-3,-3.612046130E-3,1.576948725E-2
9.269671841E0,-2.539244667E-2,8.605258539E-3,1.719585620E-3
9.369740720E0,-1.745119877E-2,2.448775433E-2,5.995642394E-3
9.469806669E0,-2.966850251E-2,2.082256228E-2,-1.171945035E-2
9.569874250E0,-1.622946747E-2,2.998554148E-2,3.552181413E-3
9.669941128E0,-1.378600672E-2,-5.444642156E-3,-1.416291017E-2
9.770008076E0,-2.790432423E-3,-1.779450453E-3,-1.130100718E-4
9.870075088E0,2.714196406E-2,-1.827281155E-2,-6.221662741E-3
9.970143768E0,1.187033392E-2,-3.232271224E-2,-4.389066715E-3
1.007020971E1,1.736812107E-2,-2.682492696E-2,2.941316226E-3
1.017027959E1,2.592023462E-2,6.640105275E-4,8.439103141E-3
1.027034371E1,-7.677354384E-3,2.204429358E-2,-1.130100718E-4
1.037041333E1,-8.899085224E-3,2.570948564E-2,-2.332589030E-2
1.047047747E1,-1.378600672E-2,1.898996718E-2,-6.832527462E-3
1.057054599E1,8.205141872E-3,-3.001180943E-3,-2.638021484E-2
1.067061377E1,-2.050552331E-2,2.143342979E-2,-1.966069825E-2
1.077067905E1,-2.172725461E-2,9.826988913E-3,-1.904983260E-2
1.087074696E1,-3.333369270E-2,7.383528166E-3,-2.027156204E-2
1.097081321E1,-2.179567004E-3,-1.949454285E-2,-3.493232653E-2
1.107088109E1,-5.233893171E-3,-1.888367720E-2,-3.248886764E-2
1.117094624E1,-2.790432423E-3,1.227045059E-2,-7.443393115E-3
1.127101532E1,1.736812107E-2,2.448775433E-2,-4.999931902E-3
1.137108206E1,-3.516628966E-2,4.831150174E-2,-4.389066715E-3
1.147114968E1,-2.661417797E-2,1.104871929E-2,1.210429519E-2
1.157121705E1,9.426872246E-3,-4.148568958E-2,-1.355204545E-2
1.167133234E1,-1.622946747E-2,-8.498968557E-3,-1.110858470E-2
1.177139745E1,-6.455624010E-3,-7.277237717E-3,-1.945605734E-3
1.187146587E1,-8.288219571E-3,8.605258539E-3,1.332602464E-2
1.197153211E1,3.019629046E-2,-1.779450453E-3,1.332602464E-2
1.207160526E1,1.736812107E-2,3.718336811E-3,-1.334740547E-3
1.217166491E1,5.150815938E-3,1.227045059E-2,1.108720433E-3
1.227173272E1,4.363532737E-2,-6.666372530E-3,9.660834447E-3
1.237180017E1,8.205141872E-3,-8.498968557E-3,1.821294799E-2
1.247186782E1,3.386148065E-2,-9.109833278E-3,1.719585620E-3
1.257193523E1,1.614639163E-2,-1.277502440E-2,1.719585620E-3
1.267200144E1,2.042244747E-2,-3.001180943E-3,-1.334740547E-3
1.277206859E1,2.897455916E-2,-1.644021645E-2,2.330451040E-3
1.287213720E1,-1.568701933E-3,-2.438146435E-2,-1.130100718E-4
1.297220838E1,1.736812107E-2,9.826988913E-3,1.210429519E-2
1.307227023E1,-1.561860275E-2,-5.577199627E-4,1.149342954E-2
1.317233618E1,2.286590822E-2,-3.354444355E-2,3.287371621E-2
1.327240333E1,1.675725542E-2,-4.833776504E-3,2.309986949E-2
1.337247141E1,-3.822061419E-2,7.383528166E-3,4.978551879E-4
1.347253869E1,-1.195341069E-2,1.410304569E-2,-1.334740547E-3
1.357260657E1,-1.745119877E-2,-3.612046130E-3,-4.999931902E-3
1.367267265E1,-1.745119877E-2,-1.949454285E-2,-3.778201528E-3
1.377273970E1,-1.867293008E-2,-1.338589005E-2,4.978551879E-4
1.387280741E1,-1.806206256E-2,3.107471392E-3,1.088256482E-2
1.397287409E1,-7.066489197E-3,5.550932605E-3,1.760208048E-2
1.407294104E1,7.594276685E-3,-5.444642156E-3,9.660834447E-3
1.417300802E1,3.318219911E-3,3.718336811E-3,1.638035290E-2
1.427307527E1,-1.684033312E-2,6.161797326E-3,2.248900384E-2
1.437314778E1,-1.134254597E-2,-1.705108024E-2,2.309986949E-2
1.447320970E1,1.064860262E-2,-1.949454285E-2,1.393689029E-2
1.457327744E1,4.539950285E-3,-1.779450453E-3,1.271515992E-2
1.467334393E1,1.485624351E-3,-1.094242930E-2,1.719585620E-3
1.477341134E1,-1.745119877E-2,-1.168585150E-3,-1.477377582E-2
1.487347849E1,-3.401297610E-3,-6.666372530E-3,1.088256482E-2
1.497354557E1,1.736812107E-2,-6.666372530E-3,1.454775594E-2
1.507361241E1,4.241359606E-2,-1.521848608E-2,2.065640874E-2
1.517367783E1,2.164417692E-2,-4.222911317E-3,9.660834447E-3
1.527375241E1,2.469850332E-2,-3.001180943E-3,1.719585620E-3
1.537381322E1,2.103331126E-2,-5.003780499E-2,-2.515848540E-2
1.547388104E1,2.638937731E-4,-2.560319565E-2,1.638035290E-2
1.557394828E1,-2.417071536E-2,2.326602489E-2,1.719585620E-3
1.567401593E1,1.675725542E-2,5.258755386E-2,-2.332589030E-2
1.577408234E1,2.103331126E-2,1.020676419E-1,-4.165184870E-2
1.587414916E1,1.736812107E-2,3.181813657E-2,-3.798665479E-2
1.597421620E1,-6.082263216E-2,-1.338589005E-2,1.332602464E-2
1.607428268E1,-2.355985157E-2,-2.499233000E-2,2.859765664E-2
1.617435030E1,-1.195341069E-2,-4.454001784E-2,3.552181413E-3
1.627441821E1,3.325061873E-2,-1.460762043E-2,4.875621200E-2
1.637448622E1,-3.469714429E-4,-1.168585150E-3,2.004554309E-2
1.647455251E1,1.675725542E-2,4.329202231E-3,1.638035290E-2
1.657461908E1,1.553552505E-2,9.216123261E-3,2.309986949E-2
1.667469107E1,-1.568701933E-3,-9.109833278E-3,3.592804074E-2
1.677475461E1,-1.195341069E-2,-1.094242930E-2,3.104111739E-2
1.687482066E1,3.929085098E-3,-1.521848608E-2,2.615419589E-2
1.697488734E1,-3.150109947E-2,-1.216415968E-2,2.676505968E-2
1.707495479E1,-5.844758358E-3,-2.390315756E-3,2.615419589E-2
1.717502043E1,1.248119865E-2,1.885741018E-3,1.760208048E-2
1.727508892E1,6.372546311E-3,3.718336811E-3,2.615419589E-2
1.737515623E1,1.858985052E-2,4.329202231E-3,1.515862066E-2
1.747522334E1,1.248119865E-2,5.314527516E-5,2.248900384E-2
1.757529286E1,1.736812107E-2,-1.033156365E-2,1.576948725E-2
1.767535684E1,4.058100283E-2,-1.216415968E-2,2.432160079E-2
1.777542855E1,1.003773790E-2,-1.582935080E-2,2.554333024E-2
1.787549883E1,8.205141872E-3,-2.377059869E-2,2.493246458E-2
1.797555888E1,-8.288219571E-3,-1.094242930E-2,2.004554309E-2
1.807562646E1,-9.578366880E-4,3.107471392E-3,2.371073514E-2
1.817569057E1,-7.066489197E-3,1.960083470E-2,1.454775594E-2
1.827575939E1,6.983411498E-3,5.314527516E-5,1.699121669E-2
1.837582720E1,1.248119865E-2,4.940067418E-3,2.126727253E-2
1.847589491E1,1.370292995E-2,-1.521848608E-2,1.454775594E-2
1.857596119E1,-1.134254597E-2,-2.390315756E-3,1.454775594E-2
1.867603018E1,-1.867293008E-2,-1.155329403E-2,2.248900384E-2
1.877609532E1,-1.561860275E-2,-9.109833278E-3,1.515862066E-2
1.887616360E1,-7.066489197E-3,4.329202231E-3,2.554333024E-2
1.897623238E1,3.929085098E-3,5.550932605E-3,1.943467744E-2
1.907639206E1,-9.578366880E-4,-7.888102904E-3,1.943467744E-2
1.917645734E1,1.431379374E-2,-1.155329403E-2,2.309986949E-2
1.927652568E1,-7.677354384E-3,-7.277237717E-3,1.882381178E-2
1.937659296E1,1.309206430E-2,1.274875714E-3,2.309986949E-2
1.947666054E1,1.736812107E-2,1.885741018E-3,1.576948725E-2
1.957672882E1,1.370292995E-2,-1.216415968E-2,2.126727253E-2
1.967679477E1,-1.500773709E-2,-1.705108024E-2,9.660834447E-3
1.977686188E1,-2.905763872E-2,-1.033156365E-2,1.088256482E-2
1.987692953E1,5.761681125E-3,5.550932605E-3,1.821294799E-2
1.997699648E1,2.096489538E-3,1.471391134E-2,2.371073514E-2
2.007706329E1,1.370292995E-2,-1.779450453E-3,1.149342954E-2
2.017712857E1,2.714196406E-2,-9.720697999E-3,1.699121669E-2
2.027719782E1,3.997013345E-2,-1.338589005E-2,2.371073514E-2
2.037726463E1,-7.677354384E-3,-2.438146435E-2,1.943467744E-2
2.047733174E1,-2.179567004E-3,-1.033156365E-2,1.271515992E-2
2.057739855E1,1.248119865E-2,4.329202231E-3,1.882381178E-2
2.067746883E1,1.370292995E-2,2.496606437E-3,2.309986949E-2
2.077753311E1,7.594276685E-3,-4.222911317E-3,2.187814005E-2
2.087760056E1,1.553552505E-2,-6.666372530E-3,2.920852043E-2
2.097766714E1,2.530936897E-2,-3.612046130E-3,2.493246458E-2
2.107774042E1,-2.790432423E-3,1.885741018E-3,2.309986949E-2
2.117779920E1,6.983411498E-3,-3.001180943E-3,1.576948725E-2
2.127786762E1,1.248119865E-2,-5.444642156E-3,2.065640874E-2
2.137793706E1,-1.012081560E-2,-2.315973490E-2,2.187814005E-2
2.147800424E1,8.747590473E-4,3.718336811E-3,1.760208048E-2
2.157806996E1,-1.568701933E-3,3.107471392E-3,2.065640874E-2
2.167813774E1,1.485624351E-3,1.227045059E-2,1.821294799E-2
2.177821002E1,-1.012081560E-2,-6.666372530E-3,2.004554309E-2
2.187827170E1,1.553552505E-2,-1.216415968E-2,2.493246458E-2
2.197834412E1,1.187033392E-2,-5.577199627E-4,2.004554309E-2
2.207840630E1,1.003773790E-2,-1.644021645E-2,2.248900384E-2
2.217847088E1,-1.378600672E-2,-3.001180943E-3,1.454775594E-2
2.227853903E1,8.816007525E-3,4.329202231E-3,2.065640874E-2
2.237860675E1,2.096489538E-3,1.885741018E-3,2.126727253E-2
2.247867396E1,6.372546311E-3,-5.577199627E-4,1.760208048E-2
2.257874114E1,-3.469714429E-4,-1.399675570E-2,1.210429519E-2
2.267881616E1,-2.179567004E-3,-9.720697999E-3,7.828238420E-3
2.277887570E1,1.248119865E-2,-1.582935080E-2,1.515862066E-2
2.287894328E1,1.675725542E-2,-3.001180943E-3,1.638035290E-2
2.297901043E1,2.714196406E-2,-2.071627229E-2,1.271515992E-2
2.307907711E1,8.816007525E-3,-1.644021645E-2,1.393689029E-2
2.317914206E1,1.492465939E-2,-1.888367720E-2,1.638035290E-2
2.327921664E1,2.164417692E-2,-6.666372530E-3,1.638035290E-2
2.337927899E1,1.125946827E-2,-6.666372530E-3,1.332602464E-2
2.347934517E1,2.638937731E-4,-7.277237717E-3,1.454775594E-2
2.357941245E1,-2.790432423E-3,-1.779450453E-3,1.271515992E-2
2.367948173E1,8.205141872E-3,-5.577199627E-4,9.049968794E-3
2.377954698E1,-8.899085224E-3,1.274875714E-3,1.027169917E-2
2.387961419E1,-7.677354384E-3,-6.055507343E-3,9.660834447E-3
2.397968127E1,-2.050552331E-2,1.885741018E-3,7.828238420E-3
2.407974842E1,8.816007525E-3,-1.168585150E-3,2.004554309E-2
2.417981307E1,-5.844758358E-3,4.940067418E-3,7.828238420E-3
2.427988121E1,-1.317514107E-2,1.274875714E-3,9.660834447E-3
2.437994989E1,-7.677354384E-3,-5.577199627E-4,8.439103141E-3
2.448001731E1,3.318219911E-3,-6.055507343E-3,5.384777207E-3
2.458008622E1,-5.233893171E-3,-1.521848608E-2,1.149342954E-2
2.468015063E1,-1.134254597E-2,-6.666372530E-3,9.049968794E-3
2.478021778E1,4.539950285E-3,6.161797326E-3,1.515862066E-2
2.488028546E1,-5.233893171E-3,-1.155329403E-2,1.515862066E-2
2.498035234E1,-2.179567004E-3,-1.216415968E-2,1.454775594E-2
2.508041902E1,-1.256427635E-2,5.550932605E-3,8.439103141E-3
2.518048917E1,-8.899085224E-3,2.496606437E-3,4.773912020E-3
2.528055738E1,9.426872246E-3,-7.888102904E-3,1.638035290E-2
2.538062310E1,-4.012163263E-3,-4.222911317E-3,1.271515992E-2
2.548068781E1,1.370292995E-2,-1.277502440E-2,-1.945605734E-3
2.558075532E1,-1.500773709E-2,-9.109833278E-3,1.088256482E-2
2.568082140E1,9.426872246E-3,-1.521848608E-2,1.515862066E-2
2.578088915E1,-5.844758358E-3,1.274875714E-3,1.210429519E-2
2.588095793E1,-9.578366880E-4,2.496606437E-3,9.660834447E-3
2.598102451E1,1.003773790E-2,-1.399675570E-2,7.217372768E-3
2.608109162E1,1.553552505E-2,-9.720697999E-3,8.439103141E-3
2.618115584E1,1.797898673E-2,-5.444642156E-3,9.049968794E-3
2.628122375E1,-9.578366880E-4,-1.094242930E-2,2.248900384E-2
2.638129303E1,1.492465939E-2,-2.390315756E-3,9.660834447E-3
2.648141298E1,3.929085098E-3,-6.666372530E-3,1.454775594E-2
2.658147810E1,1.248119865E-2,-3.001180943E-3,1.210429519E-2
2.668154104E1,-1.012081560E-2,-7.888102904E-3,8.439103141E-3
2.678160816E1,3.318219911E-3,-1.338589005E-2,1.088256482E-2
2.688167581E1,7.594276685E-3,4.329202231E-3,8.439103141E-3
2.698174379E1,-4.012163263E-3,5.314527516E-5,1.210429519E-2
2.708180964E1,-4.623028450E-3,-5.577199627E-4,1.515862066E-2
2.718187442E1,8.205141872E-3,-9.720697999E-3,8.439103141E-3
2.728194343E1,-1.500773709E-2,-1.338589005E-2,9.049968794E-3
2.738201051E1,-1.684033312E-2,-7.277237717E-3,9.049968794E-3
2.748207812E1,-2.179567004E-3,5.314527516E-5,1.210429519E-2
2.758214497E1,-1.439687237E-2,3.718336811E-3,8.439103141E-3
2.768221295E1,4.539950285E-3,-6.666372530E-3,2.941316226E-3
2.778227970E1,8.747590473E-4,-6.666372530E-3,9.660834447E-3
2.788234715E1,9.426872246E-3,-1.277502440E-2,-6.221662741E-3
2.798241423E1,-8.899085224E-3,-1.644021645E-2,1.149342954E-2
2.808248071E1,-9.578366880E-4,-3.612046130E-3,1.576948725E-2
2.818254518E1,1.248119865E-2,-3.001180943E-3,1.149342954E-2
2.828261620E1,-9.578366880E-4,-5.577199627E-4,9.660834447E-3
2.838268212E1,2.638937731E-4,-3.001180943E-3,4.978551879E-4
2.848274913E1,-8.288219571E-3,-3.612046130E-3,-1.294117980E-2
2.858281771E1,1.736812107E-2,-5.444642156E-3,-1.233031508E-2
2.868288309E1,3.318219911E-3,-6.055507343E-3,-9.275988676E-3
2.878295063E1,8.816007525E-3,-6.666372530E-3,-1.355204545E-2
2.888301845E1,4.485705495E-2,5.314527516E-5,-1.477377582E-2
2.898308473E1,3.752667084E-2,-2.254886739E-2,-2.882367745E-2
2.908315187E1,1.797898673E-2,6.772662979E-3,-1.294117980E-2
2.918321642E1,2.775282972E-2,-6.055507343E-3,-1.782810129E-2
2.928328767E1,1.125946827E-2,2.496606437E-3,-2.332589030E-2
2.938335428E1,1.920071617E-2,-1.766194776E-2,-2.210415900E-2
2.948342043E1,-2.478158101E-2,-2.621405944E-2,-2.882367745E-2
2.958348757E1,-3.089023381E-2,-3.720963374E-2,-2.576934919E-2
2.968355452E1,8.747590473E-4,-2.621405944E-2,-2.943454124E-2
2.978362176E1,-9.578366880E-4,-1.521848608E-2,-2.699108049E-2
2.988368951E1,-1.134254597E-2,-4.222911317E-3,3.552181413E-3
2.998375596E1,-1.195341069E-2,-7.277237717E-3,2.554333024E-2
3.008382294E1,2.347677201E-2,-5.577199627E-4,2.798679098E-2
3.018388746E1,5.150815938E-3,1.227045059E-2,2.798679098E-2
3.028395744E1,1.309206430E-2,-4.222911317E-3,1.760208048E-2
3.038402571E1,1.675725542E-2,-3.110098280E-2,3.776063398E-2
3.048409153E1,1.553552505E-2,-3.659877181E-2,3.714976832E-2
3.058415931E1,8.517416567E-2,-4.331828654E-2,2.309986949E-2
3.068422562E1,4.241359606E-2,3.242900595E-2,4.570188001E-2
3.078429200E1,3.935926780E-2,4.525717348E-2,3.043025173E-2
3.088436025E1,1.736812107E-2,-7.277237717E-3,1.576948725E-2
3.098442716E1,-1.928379387E-2,-1.155329403E-2,3.898236528E-2
3.108449491E1,8.816007525E-3,-1.216415968E-2,3.104111739E-2
3.118455966E1,1.675725542E-2,-7.888102904E-3,3.043025173E-2
3.128462927E1,-7.066489197E-3,1.274875714E-3,1.454775594E-2
3.138469705E1,-1.684033312E-2,-7.888102904E-3,1.699121669E-2
3.148476303E1,-1.012081560E-2,-5.444642156E-3,2.004554309E-2
3.158482982E1,-2.417071536E-2,1.532477699E-2,2.309986949E-2
3.168489676E1,-1.439687237E-2,1.349218097E-2,2.432160079E-2
3.178496441E1,-2.172725461E-2,1.274875714E-3,1.515862066E-2
3.188503189E1,-3.516628966E-2,-1.094242930E-2,8.439103141E-3
3.198509847E1,-1.745119877E-2,-7.888102904E-3,1.760208048E-2
3.208516708E1,-3.469714429E-4,-2.132713981E-2,2.248900384E-2
3.218523613E1,2.638937731E-4,-3.612046130E-3,2.432160079E-2
3.228530461E1,1.675725542E-2,-5.577199627E-4,2.371073514E-2
3.238536616E1,-2.355985157E-2,2.693121508E-2,1.149342954E-2
3.248543404E1,1.485624351E-3,-4.222911317E-3,2.309986949E-2
3.258550106E1,1.553552505E-2,-1.399675570E-2,1.821294799E-2
3.268556824E1,-1.745119877E-2,-9.720697999E-3,1.821294799E-2
3.278563522E1,-2.790432423E-3,3.107471392E-3,1.699121669E-2
3.288570333E1,-8.288219571E-3,-2.010540850E-2,2.065640874E-2
3.298576944E1,2.408763953E-2,-2.193800360E-2,2.126727253E-2
3.308584249E1,1.370292995E-2,-8.498968557E-3,2.432160079E-2
3.318590040E1,2.530936897E-2,-1.033156365E-2,1.882381178E-2
3.328597788E1,1.492465939E-2,2.496606437E-3,1.760208048E-2
3.338603846E1,1.187033392E-2,-6.666372530E-3,1.576948725E-2
3.348610465E1,6.372546311E-3,-7.277237717E-3,1.882381178E-2
3.358617279E1,2.958542667E-2,-1.277502440E-2,1.760208048E-2
3.368623934E1,1.485624351E-3,-1.779450453E-3,1.699121669E-2
3.378645540E1,1.309206430E-2,-1.033156365E-2,2.859765664E-2
3.388652268E1,1.187033392E-2,-5.444642156E-3,2.798679098E-2
3.398658983E1,-1.684033312E-2,6.640105275E-4,3.714976832E-2
3.408665681E1,1.248119865E-2,2.021169849E-2,4.570188001E-2
3.418672049E1,-1.195341069E-2,1.776823774E-2,2.737592533E-2
3.428679044E1,-4.623028450E-3,-3.612046130E-3,3.470630944E-2
3.438685815E1,-7.677354384E-3,1.165958494E-2,3.043025173E-2
3.448692543E1,-8.288219571E-3,2.143342979E-2,2.554333024E-2
3.458699254E1,3.929085098E-3,9.216123261E-3,2.981938794E-2
3.468705975E1,-9.509949945E-3,-1.888367720E-2,4.692361504E-2
3.478712637E1,2.897455916E-2,-2.804665640E-2,4.570188001E-2
3.488719421E1,-7.677354384E-3,-1.766194776E-2,4.692361504E-2
3.498726113E1,9.426872246E-3,-5.577199627E-4,4.264755547E-2
3.508733227E1,-1.012081560E-2,7.994392887E-3,3.714976832E-2
3.518739462E1,1.003773790E-2,-1.779450453E-3,4.753447697E-2
3.528746690E1,5.150815938E-3,-2.315973490E-2,3.287371621E-2
3.538753282E1,1.858985052E-2,-3.612046130E-3,4.325842112E-2
3.548759656E1,2.286590822E-2,-2.682492696E-2,4.386929050E-2
3.558766444E1,3.935926780E-2,-2.499233000E-2,5.058880523E-2
3.568773085E1,5.157657713E-2,-6.469856948E-2,4.692361504E-2
3.578779763E1,4.607878998E-2,-5.981164798E-2,5.119966716E-2
3.588786531E1,1.920071617E-2,-2.499233000E-2,2.615419589E-2
3.598793226E1,3.325061873E-2,-1.827281155E-2,4.020409659E-2
3.608800031E1,3.691580892E-2,-2.743579075E-2,3.287371621E-2
3.618806406E1,1.064860262E-2,-1.460762043E-2,3.043025173E-2
3.628813424E1,1.797898673E-2,-1.766194776E-2,4.753447697E-2
3.638820042E1,1.125946827E-2,-2.315973490E-2,4.753447697E-2
3.648826773E1,1.064860262E-2,-7.752674073E-2,6.280610710E-2
3.658833571E1,1.675725542E-2,-4.148568958E-2,7.868860662E-2
3.668840232E1,-1.568701933E-3,-4.209655896E-2,8.846244961E-2
3.678846914E1,1.125946827E-2,-2.315973490E-2,9.212763608E-2
3.688853732E1,6.983411498E-3,-2.987925150E-2,6.647130102E-2
3.698860453E1,-1.684033312E-2,-1.827281155E-2,6.647130102E-2
3.708867018E1,-1.317514107E-2,-2.499233000E-2,6.708216667E-2
3.718873363E1,-1.989465952E-2,-6.666372530E-3,6.158437952E-2
3.728880444E1,9.426872246E-3,-2.499233000E-2,7.624514401E-2
3.738887419E1,-8.899085224E-3,-5.370299518E-2,6.952562928E-2
3.748893904E1,1.485624351E-3,-6.103337929E-2,7.929947227E-2
3.758900575E1,-3.401297610E-3,-2.499233000E-2,6.341698021E-2
3.768907339E1,1.485624351E-3,-9.720697999E-3,6.708216667E-2
3.778914087E1,-1.500773709E-2,2.448775433E-2,1.760208048E-2
3.788920795E1,-2.111639082E-2,2.021169849E-2,2.554333024E-2
3.798927473E1,-2.600331046E-2,3.059640713E-2,6.606507581E-3
3.808934168E1,-1.439687237E-2,9.216123261E-3,1.088256482E-2
3.818941053E1,-1.561860275E-2,-5.444642156E-3,1.108720433E-3
3.828947594E1,-1.012081560E-2,2.570948564E-2,4.163046833E-3
3.838954382E1,-1.622946747E-2,1.898996718E-2,-1.130100718E-4
3.848961441E1,-5.317997336E-1,4.386543930E-1,-8.807760477E-2
3.858967759E1,-2.417071536E-2,3.731592745E-2,-8.746674657E-2
3.868975057E1,4.546792060E-2,-2.254886739E-2,2.493246458E-2
3.878981285E1,5.761681125E-3,-6.592030078E-2,-7.238753606E-4
3.888987826E1,1.858985052E-2,-2.682492696E-2,-5.610797554E-3
3.898994651E1,-2.844677307E-2,3.303986788E-2,-3.778201528E-3
3.909001282E1,-1.195341069E-2,-1.399675570E-2,-2.027156204E-2
3.919007584E1,-1.500773709E-2,-6.055507343E-3,-2.027156204E-2
3.929014692E1,-2.417071536E-2,3.242900595E-2,-6.221662741E-3
3.939021417E1,-2.355985157E-2,2.632035129E-2,-3.737578914E-2
3.949028135E1,-4.738359526E-2,5.625274777E-2,-2.393675409E-2
3.959034903E1,-4.127494246E-2,6.419399381E-2,-5.020396039E-2
3.969042197E1,-3.883148357E-2,3.120727278E-2,-4.592790082E-2
3.979048342E1,-2.722504176E-2,1.885741018E-3,-3.309973329E-2
3.989055620E1,-3.699888662E-2,-4.222911317E-3,-4.531703889E-2
3.999061658E1,-2.111639082E-2,6.640105275E-4,-2.332589030E-2
4.009068743E1,-9.509949945E-3,-3.001180943E-3,-2.454762161E-2
4.019075451E1,-9.578366880E-4,4.098111764E-2,-7.238753606E-4
4.029081782E1,-1.561860275E-2,5.503101647E-2,-3.432146460E-2
4.039088463E1,-9.509949945E-3,7.213524729E-2,-1.966069825E-2
4.049095262E1,-1.195341069E-2,-1.644021645E-2,-4.531703889E-2
4.059101936E1,-2.905763872E-2,3.718336811E-3,-1.904983260E-2
4.069108784E1,-1.133570373E-1,-1.155329403E-2,-5.570174754E-2
4.079115482E1,-7.914859056E-2,-2.865752019E-2,-6.608645618E-2
4.089122100E1,-7.487253100E-2,-3.782049939E-2,-5.997780338E-2
4.099128801E1,-4.738359526E-2,-3.049011528E-2,-8.196895570E-2
4.109135716E1,-5.349224806E-2,5.550932605E-3,-2.149329334E-2
4.119139086E1,8.205141872E-3,1.898996718E-2,-2.332589030E-2
4.129145857E1,1.248119865E-2,2.815294638E-2,-2.943454124E-2
4.139152592E1,2.653109841E-2,4.403544217E-2,-2.515848540E-2
4.149159237E1,1.370292995E-2,3.107471392E-3,-3.167336341E-3
4.159165981E1,3.569407761E-2,-1.338589005E-2,-2.556471154E-3
4.169172723E1,1.736812107E-2,-2.621405944E-2,7.217372768E-3
4.179179344E1,3.318219911E-3,-1.155329403E-2,8.439103141E-3
4.189186169E1,-2.179567004E-3,-1.168585150E-3,1.699121669E-2
4.199192820E1,2.653109841E-2,-1.779450453E-3,1.882381178E-2
4.209199438E1,1.003773790E-2,2.265515924E-2,2.330451040E-3
4.219205859E1,3.929085098E-3,1.837910339E-2,1.943467744E-2
4.229212941E1,5.150815938E-3,-1.033156365E-2,2.941316226E-3
4.239219699E1,-1.622946747E-2,-1.460762043E-2,-1.130100718E-4
4.249226351E1,1.003773790E-2,-9.720697999E-3,-1.130100718E-4
4.259233042E1,-3.401297610E-3,-4.222911317E-3,-1.945605734E-3
4.269239774E1,-8.288219571E-3,5.314527516E-5,2.330451040E-3
4.279246558E1,1.553552505E-2,-4.222911317E-3,7.217372768E-3
4.289253296E1,7.594276685E-3,-4.833776504E-3,4.163046833E-3
4.299259921E1,1.485624351E-3,-9.109833278E-3,-4.389066715E-3
4.309266742E1,-2.179567004E-3,1.165958494E-2,3.552181413E-3
4.319273500E1,1.492465939E-2,5.550932605E-3,1.332602464E-2
4.329280035E1,1.981158182E-2,-1.277502440E-2,1.454775594E-2
4.339286720E1,6.372546311E-3,-1.277502440E-2,4.773912020E-3
4.349293478E1,1.248119865E-2,-4.222911317E-3,2.941316226E-3
4.359300179E1,1.675725542E-2,1.274875714E-3,1.332602464E-2
4.369306827E1,2.096489538E-3,-1.094242930E-2,1.699121669E-2
4.379313978E1,2.469850332E-2,-6.055507343E-3,1.027169917E-2
4.389320323E1,6.372546311E-3,3.718336811E-3,8.439103141E-3
4.399327108E1,1.248119865E-2,1.410304569E-2,1.149342954E-2
4.409333752E1,3.202888370E-2,-1.155329403E-2,1.882381178E-2
4.419340024E1,-2.790432423E-3,-2.254886739E-2,7.828238420E-3
4.429347162E1,-3.089023381E-2,-4.833776504E-3,1.719585620E-3
4.439353883E1,-2.172725461E-2,-1.460762043E-2,1.088256482E-2
4.449360558E1,-8.953329176E-2,2.326602489E-2,2.330451040E-3
4.459367349E1,-1.665023267E-1,3.059640713E-2,-1.660637185E-2
4.469374034E1,-2.013216466E-1,2.496606437E-3,-1.660637185E-2
4.479381125E1,-1.970455796E-1,1.274875714E-3,-1.843896694E-2
4.489387483E1,-5.960089713E-2,-1.521848608E-2,2.248900384E-2
4.499394135E1,-7.487253100E-2,-2.682492696E-2,2.330451040E-3
4.509400876E1,-1.597828120E-1,-1.949454285E-2,7.828238420E-3
4.519407504E1,-1.335155964E-1,-1.338589005E-2,-1.538464148E-2
4.529414252E1,-1.127461791E-1,2.570948564E-2,1.719585620E-3
4.539421004E1,-6.815301627E-2,2.265515924E-2,1.454775594E-2
4.549427711E1,-2.539244667E-2,7.383528166E-3,1.943467744E-2
4.559434586E1,-2.050552331E-2,-4.833776504E-3,1.515862066E-2
4.569441147E1,-1.928379387E-2,-1.033156365E-2,2.676505968E-2
4.579447892E1,-7.066489197E-3,-9.720697999E-3,2.859765664E-2
4.589454574E1,2.096489538E-3,-1.644021645E-2,1.393689029E-2
4.599461278E1,2.164417692E-2,4.940067418E-3,2.309986949E-2
4.609468003E1,-3.577715531E-2,-4.222911317E-3,3.552181413E-3
4.619474315E1,-1.806206256E-2,-1.888367720E-2,1.454775594E-2
4.629481446E1,3.080715612E-2,-1.399675570E-2,1.088256482E-2
4.639488158E1,8.816007525E-3,-3.612046130E-3,1.943467744E-2
4.649494839E1,1.553552505E-2,-1.582935080E-2,9.660834447E-3
4.659501601E1,7.173512876E-2,-3.293357790E-2,4.978551879E-4
4.669508256E1,7.295685261E-2,7.383528166E-3,1.271515992E-2
4.679514977E1,-3.469714429E-4,1.043785457E-2,9.660834447E-3
4.689521779E1,2.164417692E-2,-2.926838771E-2,3.552181413E-3
4.699528404E1,7.906551659E-2,-4.942693934E-2,3.226284683E-2
4.709535125E1,1.059435830E-1,4.464630783E-2,8.479725569E-2
4.719541390E1,1.743604839E-1,1.106197536E-1,9.049968794E-3
4.729548448E1,1.560345292E-1,9.473726153E-2,2.004554309E-2
4.739555516E1,1.480932832E-1,6.161797326E-3,-7.036250830E-2
4.749561987E1,1.242695376E-1,5.258755386E-2,7.217372768E-3
4.759568732E1,7.173512876E-2,-2.926838771E-2,-1.130100718E-4
4.769575440E1,4.180273041E-2,-2.621405944E-2,1.760208048E-2
4.779582238E1,2.707354724E-3,1.885741018E-3,4.997793958E-2
4.789588810E1,3.997013345E-2,1.837910339E-2,2.126727253E-2
4.799595578E1,-2.294898592E-2,-9.720697999E-3,2.065640874E-2
4.809602592E1,-2.661417797E-2,-2.390315756E-3,1.271515992E-2
4.819608694E1,-8.899085224E-3,-3.612046130E-3,1.515862066E-2
4.829615842E1,-3.469714429E-4,-3.612046130E-3,4.163046833E-3
4.839622446E1,1.858985052E-2,1.885741018E-3,9.660834447E-3
4.849629057E1,1.981158182E-2,-9.720697999E-3,-7.238753606E-4
4.859654419E1,3.318219911E-3,4.159198329E-2,3.348457813E-2
4.869661380E1,4.791138321E-2,-3.537703678E-2,2.126727253E-2
4.879667822E1,4.668965191E-2,-6.408770382E-2,1.271515992E-2
4.889674583E1,-3.577715531E-2,-5.444642156E-3,1.149342954E-2
4.899681238E1,6.372546311E-3,-2.010540850E-2,-7.443393115E-3
4.909687953E1,6.562647223E-2,1.654650643E-2,-1.538464148E-2
4.919695154E1,6.440474838E-2,1.165958494E-2,-6.832527462E-3
4.929701409E1,8.211983740E-2,6.113967299E-2,-7.238753606E-4
4.939708074E1,3.630494326E-2,-6.666372530E-3,-1.233031508E-2
4.949714858E1,7.234599441E-2,-1.056265384E-1,2.676505968E-2
4.959721580E1,1.035001203E-1,-1.746543050E-1,-1.110858470E-2
4.969728211E1,4.180273041E-2,-2.186366171E-1,-5.264742300E-2
4.979734939E1,-5.532484502E-2,-1.740434617E-1,2.493246458E-2
4.989741774E1,-9.747454524E-2,-1.092917323E-1,-1.599550620E-2
4.999748362E1,-2.783590741E-2,1.564346403E-1,8.439103141E-3
5.009755070E1,1.218260825E-1,1.472716630E-1,-4.165184870E-2
5.019761288E1,6.073955074E-2,1.759823263E-1,-5.610797554E-3
5.029768816E1,2.714196406E-2,8.740687370E-2,-1.782810129E-2
5.039775174E1,5.157657713E-2,-3.782049939E-2,2.126727253E-2
5.049781908E1,-4.249667376E-2,-6.055507343E-3,-7.443393115E-3
5.059788633E1,3.447234631E-2,2.693121508E-2,5.058880523E-2
5.069795414E1,1.431379374E-2,2.143342979E-2,1.210429519E-2
5.079802109E1,3.386148065E-2,-4.833776504E-3,8.439103141E-3
5.089808787E1,-1.317514107E-2,-4.087482393E-2,3.226284683E-2
5.099815462E1,-2.478158101E-2,3.303986788E-2,1.271515992E-2
5.109822193E1,2.347677201E-2,4.525717348E-2,1.943467744E-2
5.119828978E1,-1.928379387E-2,-3.171184659E-2,3.043025173E-2
5.129835709E1,2.225504257E-2,-5.370299518E-2,1.108720433E-3
5.139842277E1,1.309206430E-2,-3.049011528E-2,-3.167336341E-3
5.149849449E1,2.096489538E-3,4.159198329E-2,5.384777207E-3
5.159855810E1,3.691580892E-2,-5.577199627E-4,1.699121669E-2
5.169862448E1,4.913311452E-2,-4.454001784E-2,1.454775594E-2
5.179869186E1,6.983411498E-3,-2.438146435E-2,1.210429519E-2
5.189875894E1,2.836369537E-2,-4.148568958E-2,2.065640874E-2
5.199882562E1,2.836369537E-2,-3.904222697E-2,1.943467744E-2
5.209889290E1,3.691580892E-2,-1.460762043E-2,2.981938794E-2
5.219895505E1,2.286590822E-2,-1.460762043E-2,3.226284683E-2
5.229902772E1,-2.790432423E-3,-9.109833278E-3,4.773912020E-3
5.239909474E1,-1.568701933E-3,-6.666372530E-3,1.821294799E-2
5.249916155E1,2.096489538E-3,1.104871929E-2,1.027169917E-2
5.259922917E1,5.761681125E-3,-9.720697999E-3,4.163046833E-3
5.269930184E1,-1.928379387E-2,-4.222911317E-3,1.882381178E-2
5.279936296E1,-5.844758358E-3,4.329202231E-3,1.210429519E-2
5.289942994E1,4.424619302E-2,3.718336811E-3,1.271515992E-2
5.299950142E1,1.187033392E-2,-3.415530920E-2,1.515862066E-2
5.309956500E1,-4.066407681E-2,-6.469856948E-2,9.049968794E-3
5.319962688E1,-2.905763872E-2,-2.377059869E-2,1.454775594E-2
5.329970096E1,1.003773790E-2,1.288131531E-2,1.393689029E-2
5.339976664E1,1.370292995E-2,2.496606437E-3,1.088256482E-2
5.349983345E1,-4.677273333E-2,2.998554148E-2,7.217372768E-3
5.359989980E1,5.761681125E-3,-2.499233000E-2,-4.389066715E-3
5.369996678E1,-1.745119877E-2,2.143342979E-2,-1.130100718E-4
5.380003362E1,1.553552505E-2,-4.698347673E-2,1.027169917E-2
5.390010154E1,8.816007525E-3,-6.055507343E-3,8.439103141E-3
5.400016925E1,1.003773790E-2,2.448775433E-2,5.384777207E-3
5.410023530E1,3.202888370E-2,3.670505807E-2,2.737592533E-2
5.420029748E1,1.309206430E-2,6.772662979E-3,2.371073514E-2
5.430036913E1,-5.844758358E-3,-5.444642156E-3,1.454775594E-2
5.440043818E1,-3.469714429E-4,1.885741018E-3,9.049968794E-3
5.450050389E1,3.318219911E-3,-7.888102904E-3,1.943467744E-2
5.460057110E1,-2.111639082E-2,-1.155329403E-2,-1.130100718E-4
5.470063878E1,-2.783590741E-2,-2.865752019E-2,1.576948725E-2
5.480070546E1,-1.012081560E-2,-1.460762043E-2,9.049968794E-3
5.490077314E1,2.225504257E-2,1.654650643E-2,7.828238420E-3
5.500083929E1,3.325061873E-2,1.654650643E-2,1.271515992E-2
5.510091144E1,1.370292995E-2,-1.338589005E-2,-1.945605734E-3
5.520096832E1,5.150815938E-3,-6.055507343E-3,2.432160079E-2
5.530104087E1,-5.233893171E-3,-1.033156365E-2,2.004554309E-2
5.540110938E1,1.064860262E-2,8.605258539E-3,1.882381178E-2
5.550117550E1,1.431379374E-2,6.772662979E-3,1.576948725E-2
5.560124221E1,4.539950285E-3,-7.888102904E-3,1.699121669E-2
5.570131116E1,-7.677354384E-3,-6.666372530E-3,1.271515992E-2
5.580137621E1,1.064860262E-2,-5.577199627E-4,1.332602464E-2
5.590144482E1,8.816007525E-3,-5.577199627E-4,1.760208048E-2
5.600162372E1,4.607878998E-2,-2.010540850E-2,1.027169917E-2
5.610169083E1,1.003773790E-2,-7.019636035E-2,1.210429519E-2
5.620175338E1,4.539950285E-3,-5.125953630E-2,-1.904983260E-2
5.630182469E1,1.125946827E-2,-1.888367720E-2,6.606507581E-3
5.640189187E1,1.064860262E-2,-2.071627229E-2,9.049968794E-3
5.650195945E1,1.797898673E-2,-2.390315756E-3,2.493246458E-2
5.660202673E1,1.553552505E-2,9.216123261E-3,3.165198490E-2
5.670209358E1,-5.233893171E-3,1.960083470E-2,1.882381178E-2
5.680216066E1,-3.822061419E-2,3.059640713E-2,3.552181413E-3
5.690222887E1,-2.790432423E-3,-2.132713981E-2,-1.130100718E-4
5.700229535E1,-4.860532656E-2,2.082256228E-2,-7.238753606E-4
5.710236213E1,-4.012163263E-3,-2.499233000E-2,6.606507581E-3
5.720242458E1,1.064860262E-2,5.314527516E-5,2.798679098E-2
5.730249610E1,-5.844758358E-3,-1.338589005E-2,1.882381178E-2
5.740256354E1,-2.790432423E-3,2.265515924E-2,6.606507581E-3
5.750263039E1,2.103331126E-2,5.550932605E-3,9.049968794E-3
5.760269227E1,-5.844758358E-3,-1.705108024E-2,9.049968794E-3
5.770276472E1,-2.050552331E-2,-2.132713981E-2,1.271515992E-2
5.780283206E1,-3.401297610E-3,1.165958494E-2,1.332602464E-2
5.790290401E1,7.594276685E-3,6.640105275E-4,1.454775594E-2
5.800296646E1,-2.179567004E-3,-8.498968557E-3,7.217372768E-3
5.810303367E1,2.707354724E-3,-5.577199627E-4,1.393689029E-2
5.820310085E1,-1.073168125E-2,-9.109833278E-3,1.638035290E-2
5.830316760E1,-1.317514107E-2,-1.277502440E-2,4.773912020E-3
5.840323441E1,2.408763953E-2,-1.155329403E-2,1.760208048E-2
5.850330252E1,2.096489538E-3,2.496606437E-3,8.439103141E-3
5.860336680E1,-2.179567004E-3,-6.666372530E-3,2.920852043E-2
5.870344015E1,4.363532737E-2,-2.193800360E-2,2.187814005E-2
5.880350397E1,1.858985052E-2,-1.277502440E-2,1.027169917E-2
5.890357058E1,-2.790432423E-3,-6.666372530E-3,6.606507581E-3
5.900363809E1,-3.150109947E-2,5.314527516E-5,1.149342954E-2
5.910370464E1,-2.905763872E-2,-1.094242930E-2,1.515862066E-2
5.920377172E1,-1.317514107E-2,-3.612046130E-3,9.660834447E-3
5.930383926E1,8.747590473E-4,6.772662979E-3,1.760208048E-2
5.940390635E1,3.202888370E-2,-1.521848608E-2,1.454775594E-2
5.950397303E1,3.386148065E-2,-7.888102904E-3,9.049968794E-3
5.960404651E1,7.594276685E-3,5.314527516E-5,9.660834447E-3
5.970410772E1,1.614639163E-2,-2.438146435E-2,9.660834447E-3
5.980417550E1,1.431379374E-2,-1.949454285E-2,4.773912020E-3
5.990424168E1,2.775282972E-2,-2.560319565E-2,5.995642394E-3
6.000430859E1,-6.455624010E-3,-5.577199627E-4,1.638035290E-2
6.010437574E1,-1.561860275E-2,-5.577199627E-4,1.332602464E-2
6.020444278E1,-1.073168125E-2,-7.277237717E-3,1.149342954E-2
6.030451016E1,-8.288219571E-3,5.314527516E-5,2.330451040E-3
6.040457778E1,-6.455624010E-3,-9.720697999E-3,9.660834447E-3
6.050464432E1,-2.790432423E-3,-1.827281155E-2,2.309986949E-2
6.060470624E1,1.553552505E-2,4.940067418E-3,1.760208048E-2
6.070477832E1,-4.623028450E-3,9.216123261E-3,1.882381178E-2
6.080484700E1,-5.233893171E-3,-1.094242930E-2,-9.275988676E-3
6.090491381E1,-7.548339665E-2,2.082256228E-2,1.088256482E-2
6.100497962E1,-1.928379387E-2,-3.049011528E-2,1.210429519E-2
6.110504654E1,-1.867293008E-2,-2.390315756E-3,2.309986949E-2
6.120511375E1,-2.661417797E-2,-4.833776504E-3,2.493246458E-2
6.130518217E1,-3.401297610E-3,1.274875714E-3,-4.999931902E-3
6.140524918E1,4.119186476E-2,1.288131531E-2,-1.171945035E-2
6.150531552E1,2.653109841E-2,-2.390315756E-3,-2.556471154E-3
6.160537727E1,2.638937731E-4,-2.254886739E-2,1.699121669E-2
6.170544952E1,-2.661417797E-2,-1.033156365E-2,2.187814005E-2
6.180551696E1,6.983411498E-3,-1.779450453E-3,2.126727253E-2
6.190558378E1,2.103331126E-2,6.161797326E-3,2.330451040E-3
6.200565119E1,2.714196406E-2,-6.055507343E-3,-3.167336341E-3
6.210571830E1,6.372546311E-3,-1.216415968E-2,-1.130100718E-4
6.220578522E1,-1.989465952E-2,-3.612046130E-3,9.660834447E-3
6.230585354E1,3.325061873E-2,-1.779450453E-3,1.760208048E-2
6.240592018E1,9.426872246E-3,-2.010540850E-2,1.638035290E-2
6.250598616E1,-1.256427635E-2,-1.338589005E-2,1.699121669E-2
6.260604921E1,-1.806206256E-2,2.496606437E-3,1.638035290E-2
6.270612069E1,-5.233893171E-3,-7.888102904E-3,1.638035290E-2
6.280618860E1,-1.012081560E-2,6.772662979E-3,4.773912020E-3
6.290625575E1,-5.844758358E-3,-1.338589005E-2,1.332602464E-2
6.300632283E1,-3.469714429E-4,-6.666372530E-3,1.454775594E-2
6.310639007E1,-4.012163263E-3,5.314527516E-5,1.332602464E-2
6.320645622E1,-5.233893171E-3,-3.612046130E-3,7.828238420E-3
6.330652390E1,-3.089023381E-2,-1.094242930E-2,1.332602464E-2
6.340670756E1,8.205141872E-3,-6.666372530E-3,2.981938794E-2
6.350677321E1,4.119186476E-2,7.994392887E-3,2.737592533E-2
6.360683559E1,3.325061873E-2,-3.537703678E-2,1.515862066E-2
6.370690717E1,-4.012163263E-3,-3.293357790E-2,4.978551879E-4
6.380697462E1,2.958542667E-2,-1.338589005E-2,2.065640874E-2
6.390704183E1,4.119186476E-2,-3.612046130E-3,1.271515992E-2
6.400710871E1,-2.790432423E-3,4.329202231E-3,-3.778201528E-3
6.410717726E1,-6.082263216E-2,1.288131531E-2,2.941316226E-3
6.420724284E1,8.816007525E-3,-3.293357790E-2,4.163046833E-3
6.430731072E1,-2.790432423E-3,5.550932605E-3,1.821294799E-2
6.440737703E1,-5.844758358E-3,1.349218097E-2,1.271515992E-2
6.450744518E1,7.594276685E-3,5.550932605E-3,1.332602464E-2
6.460750606E1,-3.027937002E-2,1.410304569E-2,1.943467744E-2
6.470757828E1,-2.050552331E-2,-9.720697999E-3,2.676505968E-2
6.480764576E1,-4.623028450E-3,-1.155329403E-2,2.676505968E-2
6.490771290E1,1.858985052E-2,1.274875714E-3,2.737592533E-2
6.500777982E1,4.730051756E-2,9.216123261E-3,8.439103141E-3
6.510784703E1,8.205141872E-3,-2.315973490E-2,1.393689029E-2
6.520791428E1,-1.317514107E-2,-1.155329403E-2,-6.221662741E-3
6.530798139E1,8.816007525E-3,3.107471392E-3,2.330451040E-3
6.540804840E1,5.646349862E-2,-1.705108024E-2,-1.334740547E-3
6.550811535E1,8.816007525E-3,-1.644021645E-2,-1.110858470E-2
6.560818196E1,-8.288219571E-3,-4.833776504E-3,-3.167336341E-3
6.570825528E1,-2.790432423E-3,-4.222911317E-3,6.606507581E-3
6.580831686E1,1.981158182E-2,-6.055507343E-3,1.332602464E-2
6.590838380E1,2.897455916E-2,-5.577199627E-4,1.393689029E-2
6.600845119E1,-1.561860275E-2,9.826988913E-3,2.493246458E-2
6.610851830E1,1.248119865E-2,-3.612046130E-3,2.126727253E-2
6.620858531E1,-8.899085224E-3,-1.582935080E-2,2.004554309E-2
6.630865263E1,-2.050552331E-2,-7.888102904E-3,-2.556471154E-3
6.640871950E1,1.920071617E-2,-4.222911317E-3,-1.110858470E-2
6.650878675E1,-4.623028450E-3,-1.033156365E-2,1.332602464E-2
6.660885320E1,8.816007525E-3,-4.222911317E-3,1.027169917E-2
6.670892078E1,-1.439687237E-2,5.314527516E-5,1.271515992E-2
6.680898843E1,1.125946827E-2,-5.577199627E-4,1.210429519E-2
6.690905641E1,-7.066489197E-3,1.885741018E-3,9.660834447E-3
6.700912219E1,-2.539244667E-2,-2.390315756E-3,1.088256482E-2
6.710918947E1,1.485624351E-3,1.885741018E-3,1.149342954E-2
6.720925642E1,2.707354724E-3,1.885741018E-3,1.149342954E-2
6.730932440E1,8.747590473E-4,-1.216415968E-2,1.088256482E-2
6.740939095E1,-2.179567004E-3,-1.094242930E-2,1.515862066E-2
6.750945769E1,3.929085098E-3,-1.033156365E-2,1.271515992E-2
6.760952094E1,-9.578366880E-4,-1.779450453E-3,4.773912020E-3
6.770959162E1,1.485624351E-3,4.940067418E-3,1.576948725E-2
6.780965923E1,5.150815938E-3,2.496606437E-3,2.941316226E-3
6.790972905E1,-2.179567004E-3,-9.720697999E-3,5.995642394E-3
6.800979470E1,-1.012081560E-2,-1.399675570E-2,4.773912020E-3
6.810986068E1,-1.012081560E-2,-1.155329403E-2,1.149342954E-2
6.820992773E1,1.309206430E-2,-3.612046130E-3,1.271515992E-2
6.830999471E1,2.958542667E-2,-7.277237717E-3,1.271515992E-2
6.841006929E1,6.983411498E-3,-4.833776504E-3,1.393689029E-2
6.851013004E1,2.638937731E-4,-1.033156365E-2,5.995642394E-3
6.861019505E1,1.858985052E-2,6.640105275E-4,9.660834447E-3
6.871026310E1,2.958542667E-2,-2.390315756E-3,4.773912020E-3
6.881033631E1,6.983411498E-3,-3.001180943E-3,1.088256482E-2
6.891039759E1,1.553552505E-2,-7.888102904E-3,1.393689029E-2
6.901046474E1,9.426872246E-3,-1.168585150E-3,2.126727253E-2
6.911053195E1,-1.195341069E-2,-5.577199627E-4,1.576948725E-2
6.921060046E1,-1.256427635E-2,-6.666372530E-3,8.439103141E-3
6.931066595E1,-1.500773709E-2,-8.498968557E-3,1.271515992E-2
6.941073323E1,-1.622946747E-2,-6.055507343E-3,1.454775594E-2
6.951080061E1,1.485624351E-3,3.107471392E-3,1.088256482E-2
6.961086372E1,-1.134254597E-2,-2.390315756E-3,1.943467744E-2
6.971093514E1,-5.233893171E-3,-1.094242930E-2,2.126727253E-2
6.981100202E1,-3.401297610E-3,5.314527516E-5,1.332602464E-2
6.991106960E1,-5.844758358E-3,-3.001180943E-3,1.027169917E-2
7.001113614E1,2.096489538E-3,-9.109833278E-3,1.088256482E-2
7.011120809E1,-1.568701933E-3,-4.833776504E-3,1.027169917E-2
7.021127057E1,1.309206430E-2,-6.666372530E-3,1.332602464E-2
7.031133832E1,-9.509949945E-3,1.885741018E-3,7.217372768E-3
7.041140863E1,-2.179567004E-3,4.329202231E-3,2.126727253E-2
7.051147208E1,1.125946827E-2,1.885741018E-3,2.004554309E-2
7.061153966E1,-1.568701933E-3,-3.612046130E-3,1.210429519E-2
7.071160690E1,-9.509949945E-3,-4.833776504E-3,7.217372768E-3
7.081172730E1,-9.578366880E-4,-6.666372530E-3,1.027169917E-2
7.091179535E1,-6.455624010E-3,-8.498968557E-3,1.760208048E-2
7.101186223E1,2.653109841E-2,-3.001180943E-3,2.004554309E-2
7.111192918E1,5.150815938E-3,-8.498968557E-3,5.995642394E-3
7.121199566E1,8.816007525E-3,-1.216415968E-2,9.049968794E-3
7.131206354E1,1.553552505E-2,-1.094242930E-2,9.049968794E-3
7.141213018E1,1.736812107E-2,-1.168585150E-3,8.439103141E-3
7.151219903E1,1.248119865E-2,-1.888367720E-2,2.493246458E-2
7.161226995E1,1.797898673E-2,-1.338589005E-2,9.660834447E-3
7.171233279E1,1.187033392E-2,9.216123261E-3,2.941316226E-3
7.181239847E1,3.929085098E-3,-1.338589005E-2,-5.610797554E-3
7.191246562E1,2.286590822E-2,-9.109833278E-3,1.638035290E-2
7.201253197E1,5.150815938E-3,-3.001180943E-3,1.576948725E-2
7.211260052E1,2.707354724E-3,-1.155329403E-2,1.943467744E-2
7.221266700E1,-1.256427635E-2,6.161797326E-3,8.439103141E-3
7.231273404E1,2.096489538E-3,-6.055507343E-3,1.515862066E-2
7.241280522E1,2.638937731E-4,-1.033156365E-2,1.576948725E-2
7.251286787E1,-7.677354384E-3,-3.612046130E-3,9.660834447E-3
7.261293228E1,-1.561860275E-2,-1.779450453E-3,7.828238420E-3
7.271300670E1,1.485624351E-3,6.640105275E-4,7.828238420E-3
7.281306988E1,-2.790432423E-3,-1.460762043E-2,1.760208048E-2
7.291313716E1,-7.677354384E-3,-4.833776504E-3,5.384777207E-3
7.301320437E1,5.761681125E-3,-6.666372530E-3,9.049968794E-3
7.311327748E1,-4.623028450E-3,-1.168585150E-3,1.149342954E-2
7.321333856E1,-1.317514107E-2,1.274875714E-3,7.217372768E-3
7.331340558E1,-4.012163263E-3,-3.612046130E-3,9.660834447E-3
7.341347226E1,8.816007525E-3,-1.779450453E-3,1.332602464E-2
7.351354500E1,1.492465939E-2,6.640105275E-4,1.515862066E-2
7.361360342E1,-2.179567004E-3,-1.399675570E-2,2.126727253E-2
7.371367423E1,-9.578366880E-4,-9.720697999E-3,1.088256482E-2
7.381374068E1,5.761681125E-3,-3.612046130E-3,1.210429519E-2
7.391380822E1,-2.179567004E-3,-1.216415968E-2,1.027169917E-2
7.401388090E1,1.736812107E-2,-1.779450453E-3,1.393689029E-2
7.411394251E1,1.614639163E-2,1.274875714E-3,1.088256482E-2
7.421401306E1,1.187033392E-2,-1.399675570E-2,1.088256482E-2
7.431407668E1,1.858985052E-2,-1.033156365E-2,1.332602464E-2
7.441414349E1,2.225504257E-2,-9.720697999E-3,1.332602464E-2
7.451421681E1,2.707354724E-3,4.940067418E-3,1.149342954E-2
7.461427452E1,1.675725542E-2,4.329202231E-3,9.660834447E-3
7.471434544E1,1.125946827E-2,-9.720697999E-3,1.576948725E-2
7.481441218E1,-2.790432423E-3,-6.666372530E-3,4.163046833E-3
7.491447927E1,7.594276685E-3,-2.390315756E-3,1.027169917E-2
7.501454634E1,6.983411498E-3,-3.612046130E-3,1.821294799E-2
7.511461276E1,8.747590473E-4,1.274875714E-3,1.332602464E-2
7.521468327E1,-4.012163263E-3,-7.888102904E-3,1.027169917E-2
7.531474802E1,-9.578366880E-4,-3.001180943E-3,1.515862066E-2
7.541481546E1,-5.844758358E-3,-5.444642156E-3,7.828238420E-3
7.551488264E1,-1.622946747E-2,-1.094242930E-2,7.828238420E-3
7.561495009E1,-1.012081560E-2,-6.055507343E-3,1.393689029E-2
7.571502167E1,-3.469714429E-4,-6.055507343E-3,1.393689029E-2
7.581508392E1,-5.844758358E-3,-1.155329403E-2,1.454775594E-2
7.591515113E1,-9.578366880E-4,-3.001180943E-3,9.660834447E-3
7.601521741E1,3.318219911E-3,-5.444642156E-3,1.515862066E-2
7.611528643E1,3.318219911E-3,-7.888102904E-3,1.210429519E-2
7.621535221E1,-1.195341069E-2,-1.277502440E-2,9.660834447E-3
7.631541899E1,1.064860262E-2,4.329202231E-3,1.821294799E-2
7.641549120E1,3.318219911E-3,-5.444642156E-3,1.576948725E-2
7.651555348E1,2.707354724E-3,-8.498968557E-3,1.638035290E-2
7.661561760E1,5.761681125E-3,5.314527516E-5,1.576948725E-2
7.671568771E1,9.426872246E-3,-6.055507343E-3,2.126727253E-2
7.681575436E1,-2.790432423E-3,-3.001180943E-3,1.271515992E-2
7.691582124E1,-5.844758358E-3,-5.444642156E-3,7.217372768E-3
7.701588905E1,-2.790432423E-3,-1.155329403E-2,9.049968794E-3
7.711595796E1,5.761681125E-3,-4.833776504E-3,8.439103141E-3
7.721602338E1,5.150815938E-3,5.314527516E-5,5.995642394E-3
7.731608972E1,3.929085098E-3,-3.612046130E-3,1.210429519E-2
7.741615710E1,1.981158182E-2,-1.216415968E-2,1.210429519E-2
7.751622398E1,2.592023462E-2,5.314527516E-5,1.088256482E-2
7.761628833E1,2.638937731E-4,-1.155329403E-2,1.149342954E-2
7.771636378E1,-4.623028450E-3,-5.444642156E-3,7.828238420E-3
7.781642526E1,1.553552505E-2,-3.001180943E-3,1.332602464E-2
7.791649267E1,-1.134254597E-2,1.274875714E-3,9.049968794E-3
7.801656015E1,-1.134254597E-2,-6.666372530E-3,9.049968794E-3
7.811673708E1,-9.578366880E-4,2.496606437E-3,1.027169917E-2
7.821680316E1,-6.455624010E-3,-1.168585150E-3,1.821294799E-2
7.831687037E1,-4.012163263E-3,-5.577199627E-4,1.393689029E-2
7.841693725E1,-7.066489197E-3,-3.612046130E-3,2.309986949E-2
7.851700456E1,3.318219911E-3,-7.888102904E-3,1.576948725E-2
7.861706907E1,-9.578366880E-4,2.496606437E-3,1.027169917E-2
7.871713922E1,1.485624351E-3,-1.582935080E-2,1.149342954E-2
7.881720644E1,-4.012163263E-3,-3.612046130E-3,6.606507581E-3
7.891727335E1,-6.455624010E-3,-7.277237717E-3,8.439103141E-3
7.901734043E1,-5.233893171E-3,-2.390315756E-3,1.576948725E-2
7.911740738E1,3.318219911E-3,1.885741018E-3,1.821294799E-2
7.921747529E1,2.707354724E-3,-1.033156365E-2,9.660834447E-3
7.931754101E1,8.205141872E-3,-8.498968557E-3,1.210429519E-2
7.941760909E1,-1.568701933E-3,-6.055507343E-3,8.439103141E-3
7.951767573E1,2.225504257E-2,-1.582935080E-2,7.828238420E-3
7.961773921E1,1.920071617E-2,-6.666372530E-3,9.660834447E-3
7.971781026E1,7.594276685E-3,-7.277237717E-3,4.163046833E-3
7.981787701E1,1.553552505E-2,-1.338589005E-2,4.773912020E-3
7.991794425E1,2.347677201E-2,-4.222911317E-3,8.439103141E-3
8.001801120E1,1.485624351E-3,-5.444642156E-3,9.660834447E-3
8.011807845E1,8.747590473E-4,-6.666372530E-3,2.941316226E-3
8.021814550E1,1.248119865E-2,1.274875714E-3,1.332602464E-2
8.031821424E1,6.372546311E-3,-3.001180943E-3,2.371073514E-2
8.041827986E1,-1.195341069E-2,-1.338589005E-2,2.309986949E-2
8.051834690E1,-1.500773709E-2,-3.612046130E-3,1.638035290E-2
8.061841235E1,3.318219911E-3,5.314527516E-5,1.699121669E-2
8.071848113E1,-1.439687237E-2,3.718336811E-3,1.332602464E-2
8.081854828E1,-9.578366880E-4,4.940067418E-3,1.454775594E-2
8.091861546E1,-1.195341069E-2,-1.338589005E-2,1.088256482E-2
8.101868254E1,-3.401297610E-3,-9.109833278E-3,1.088256482E-2
8.111874968E1,-5.233893171E-3,4.940067418E-3,1.088256482E-2
8.121881660E1,-8.288219571E-3,6.161797326E-3,1.515862066E-2
8.131888458E1,-1.134254597E-2,-1.582935080E-2,1.088256482E-2
8.141895092E1,-9.578366880E-4,-1.779450453E-3,1.271515992E-2
8.151901814E1,-4.623028450E-3,-5.577199627E-4,1.271515992E-2
8.161908262E1,-3.401297610E-3,-6.055507343E-3,7.828238420E-3
8.171915313E1,-4.623028450E-3,-7.888102904E-3,7.217372768E-3
8.181921958E1,7.594276685E-3,-1.033156365E-2,2.330451040E-3
8.191928662E1,1.981158182E-2,-1.779450453E-3,1.393689029E-2
8.201935440E1,2.469850332E-2,-1.779450453E-3,1.638035290E-2
8.211942352E1,1.309206430E-2,-1.766194776E-2,1.271515992E-2
8.221948860E1,1.003773790E-2,-3.612046130E-3,-3.167336341E-3
8.231955511E1,2.836369537E-2,-5.444642156E-3,6.606507581E-3
8.241962362E1,1.614639163E-2,-1.168585150E-3,1.149342954E-2
8.251968933E1,3.318219911E-3,6.640105275E-4,1.210429519E-2
8.261976642E1,1.309206430E-2,-7.277237717E-3,7.828238420E-3
8.271982423E1,1.492465939E-2,-7.888102904E-3,1.027169917E-2
8.281989088E1,-1.012081560E-2,-9.109833278E-3,1.332602464E-2
8.291995736E1,-8.899085224E-3,-4.833776504E-3,1.515862066E-2
8.302002644E1,2.707354724E-3,-2.390315756E-3,1.760208048E-2
8.312009295E1,-5.233893171E-3,1.274875714E-3,1.271515992E-2
8.322015903E1,2.638937731E-4,-1.399675570E-2,6.606507581E-3
8.332022618E1,-1.745119877E-2,-5.577199627E-4,1.332602464E-2
8.342029476E1,2.707354724E-3,1.885741018E-3,1.271515992E-2
8.352036071E1,-1.256427635E-2,-1.168585150E-3,1.515862066E-2
8.362042839E1,2.638937731E-4,5.550932605E-3,1.454775594E-2
8.372049540E1,-3.469714429E-4,-5.577199627E-4,1.393689029E-2
8.382056225E1,-2.179567004E-3,-6.666372530E-3,5.384777207E-3
8.392063633E1,-3.469714429E-4,-5.577199627E-4,9.660834447E-3
8.402069594E1,-1.256427635E-2,-2.390315756E-3,1.454775594E-2
8.412076349E1,-2.179567004E-3,-6.666372530E-3,1.515862066E-2
8.422083023E1,6.372546311E-3,-1.168585150E-3,1.332602464E-2
8.432089725E1,2.707354724E-3,-1.216415968E-2,1.210429519E-2
8.442096509E1,1.485624351E-3,-1.779450453E-3,4.773912020E-3
8.452103231E1,7.594276685E-3,-7.888102904E-3,1.638035290E-2
8.462110149E1,1.003773790E-2,-4.222911317E-3,6.606507581E-3
8.472116553E1,5.761681125E-3,-3.612046130E-3,9.049968794E-3
8.482123338E1,2.042244747E-2,-1.033156365E-2,8.439103141E-3
8.492130120E1,2.469850332E-2,-7.277237717E-3,8.439103141E-3
8.502136791E1,2.638937731E-4,-3.612046130E-3,2.330451040E-3
8.512143603E1,-7.066489197E-3,-1.277502440E-2,7.828238420E-3
8.522150261E1,1.370292995E-2,-7.277237717E-3,8.439103141E-3
8.532157119E1,2.164417692E-2,-1.779450453E-3,1.149342954E-2
8.542163577E1,2.469850332E-2,1.274875714E-3,1.882381178E-2
8.552170285E1,-1.195341069E-2,-5.444642156E-3,1.271515992E-2
8.562185609E1,-8.899085224E-3,-9.109833278E-3,1.576948725E-2
8.572192571E1,-5.233893171E-3,3.718336811E-3,5.995642394E-3
8.582199089E1,-1.134254597E-2,3.718336811E-3,1.088256482E-2
8.592205817E1,2.638937731E-4,-7.277237717E-3,1.454775594E-2
8.602213024E1,-1.012081560E-2,-6.055507343E-3,1.454775594E-2
8.612219239E1,-2.539244667E-2,3.718336811E-3,1.149342954E-2
8.622225910E1,-1.568701933E-3,5.314527516E-5,3.552181413E-3
8.632232662E1,-3.401297610E-3,-1.094242930E-2,2.126727253E-2
8.642239363E1,-1.561860275E-2,-1.460762043E-2,1.393689029E-2
8.652246154E1,2.707354724E-3,-4.222911317E-3,9.049968794E-3
8.662252502E1,3.929085098E-3,-6.055507343E-3,1.332602464E-2
8.672259487E1,3.929085098E-3,-1.399675570E-2,1.638035290E-2
8.682266215E1,4.539950285E-3,-2.865752019E-2,5.384777207E-3
8.692273073E1,3.929085098E-3,-4.087482393E-2,1.271515992E-2
8.702279631E1,2.714196406E-2,-3.415530920E-2,-7.238753606E-4
8.712286349E1,-2.790432423E-3,-1.033156365E-2,-2.556471154E-3
8.722293130E1,-2.179567004E-3,-9.720697999E-3,-7.238753606E-4
8.732299768E1,3.929085098E-3,-4.881607369E-2,2.554333024E-2
8.742306533E1,-1.928379387E-2,-2.926838771E-2,2.004554309E-2
8.752313184E1,-2.172725461E-2,-4.148568958E-2,1.699121669E-2
8.762320353E1,-2.661417797E-2,-5.981164798E-2,-1.721723750E-2
8.772326617E1,-7.066489197E-3,-5.370299518E-2,-3.493232653E-2
8.782333342E1,-3.760975227E-2,1.960083470E-2,-3.065627255E-2
8.792340074E1,1.981158182E-2,6.772662979E-3,-4.409530759E-2
8.802346772E1,-1.073168125E-2,-2.926838771E-2,7.217372768E-3
8.812353496E1,3.080715612E-2,-6.958549470E-2,2.065640874E-2
8.822360244E1,1.370292995E-2,-1.338589005E-2,5.995642394E-3
8.832366969E1,2.530936897E-2,7.213524729E-2,1.149342954E-2
8.842373614E1,-1.928379387E-2,7.641129941E-2,2.432160079E-2
8.852380332E1,-2.179567004E-3,4.708976671E-2,9.660834447E-3
8.862386833E1,2.347677201E-2,-1.644021645E-2,9.049968794E-3
8.872393745E1,-2.661417797E-2,-2.390315756E-3,1.271515992E-2
8.882400433E1,2.469850332E-2,3.242900595E-2,1.943467744E-2
8.892407264E1,-7.066489197E-3,4.940067418E-3,1.576948725E-2
8.902413862E1,1.370292995E-2,1.898996718E-2,9.049968794E-3
8.912421154E1,8.747590473E-4,1.104871929E-2,3.287371621E-2
8.922427435E1,-1.568701933E-3,2.082256228E-2,2.004554309E-2
8.932434573E1,-2.790432423E-3,4.708976671E-2,1.821294799E-2
8.942440701E1,2.164417692E-2,1.898996718E-2,2.554333024E-2
8.952447485E1,2.042244747E-2,-4.759434611E-2,3.165198490E-2
8.962454067E1,2.469850332E-2,-5.064867064E-2,1.454775594E-2
8.972460852E1,-2.355985157E-2,-2.193800360E-2,4.163046833E-3
8.982467576E1,-1.745119877E-2,-5.444642156E-3,1.515862066E-2
8.992474618E1,2.042244747E-2,6.772662979E-3,9.660834447E-3
9.002481046E1,-3.089023381E-2,1.288131531E-2,1.943467744E-2
9.012487773E1,2.225504257E-2,-2.254886739E-2,-1.599550620E-2
9.022494468E1,-1.928379387E-2,3.242900595E-2,1.719585620E-3
9.032501150E1,3.325061873E-2,-2.438146435E-2,-4.999931902E-3
9.042507854E1,2.714196406E-2,1.104871929E-2,1.108720433E-3
9.052514546E1,2.103331126E-2,-2.390315756E-3,1.149342954E-2
9.062521444E1,2.286590822E-2,-2.390315756E-3,4.773912020E-3
9.072528108E1,1.981158182E-2,-1.216415968E-2,2.004554309E-2
9.082534690E1,-5.233893171E-3,-1.338589005E-2,1.393689029E-2
9.092541685E1,-3.401297610E-3,-3.612046130E-3,9.049968794E-3
9.102548106E1,-9.578366880E-4,-7.277237717E-3,1.576948725E-2
9.112554787E1,-2.111639082E-2,-7.888102904E-3,1.576948725E-2
9.122561609E1,-1.568701933E-3,-2.132713981E-2,1.576948725E-2
9.132568637E1,-1.195341069E-2,7.994392887E-3,7.828238420E-3
9.142575008E1,-1.989465952E-2,1.104871929E-2,2.676505968E-2
9.152582136E1,1.675725542E-2,-1.766194776E-2,1.760208048E-2
9.162588244E1,-1.256427635E-2,4.940067418E-3,9.660834447E-3
9.172595106E1,-1.195341069E-2,5.550932605E-3,1.271515992E-2
9.182602080E1,-5.233893171E-3,-4.833776504E-3,8.439103141E-3
9.192608482E1,-7.066489197E-3,-5.444642156E-3,1.271515992E-2
9.202615233E1,8.747590473E-4,-1.779450453E-3,2.065640874E-2
9.212621995E1,1.187033392E-2,3.718336811E-3,3.552181413E-3
9.222628693E1,2.958542667E-2,-5.444642156E-3,2.493246458E-2
9.232635344E1,-3.469714429E-4,-5.577199627E-4,1.088256482E-2
9.242642149E1,-4.921618849E-2,6.640105275E-4,2.432160079E-2
9.252648914E1,-1.317514107E-2,-2.621405944E-2,2.004554309E-2
9.262656265E1,-9.509949945E-3,4.329202231E-3,-5.610797554E-3
9.272662223E1,8.205141872E-3,3.107471392E-3,1.576948725E-2
9.282668894E1,2.592023462E-2,-3.612046130E-3,9.049968794E-3
9.292687216E1,2.775282972E-2,-5.444642156E-3,9.660834447E-3
9.302693841E1,3.080715612E-2,2.496606437E-3,1.393689029E-2
9.312700492E1,2.714196406E-2,-2.560319565E-2,3.287371621E-2
9.322707260E1,2.836369537E-2,6.772662979E-3,2.676505968E-2
9.332713888E1,-7.066489197E-3,-1.033156365E-2,2.432160079E-2
9.342720693E1,1.003773790E-2,-2.987925150E-2,2.004554309E-2
9.352727388E1,-1.439687237E-2,6.772662979E-3,1.882381178E-2
9.362733912E1,1.431379374E-2,-2.132713981E-2,2.004554309E-2
9.372741300E1,-1.012081560E-2,1.349218097E-2,2.065640874E-2
9.382747535E1,-3.401297610E-3,1.410304569E-2,1.638035290E-2
9.392754213E1,-7.066489197E-3,-1.779450453E-3,1.088256482E-2
9.402760914E1,-1.622946747E-2,-5.444642156E-3,5.384777207E-3
9.412767569E1,-2.172725461E-2,-4.833776504E-3,1.576948725E-2
9.422774320E1,-5.288138241E-2,-5.577199627E-4,1.576948725E-2
9.432781038E1,1.736812107E-2,-1.779450453E-3,-3.778201528E-3
9.442787750E1,-2.790432423E-3,1.274875714E-3,3.552181413E-3
9.452794434E1,9.426872246E-3,-2.621405944E-2,8.439103141E-3
9.462801149E1,2.408763953E-2,-4.222911317E-3,-2.556471154E-3
9.472807880E1,2.347677201E-2,-2.390315756E-3,9.049968794E-3
9.482814578E1,6.135041639E-2,-2.193800360E-2,1.821294799E-2
9.492821306E1,5.761681125E-3,7.994392887E-3,7.217372768E-3
9.502828004E1,-4.623028450E-3,-4.833776504E-3,1.027169917E-2
9.512835179E1,1.485624351E-3,-7.277237717E-3,1.210429519E-2
9.522841424E1,-1.317514107E-2,6.640105275E-4,4.773912020E-3
9.532848152E1,-1.806206256E-2,-2.804665640E-2,1.943467744E-2
9.542854846E1,2.958542667E-2,-1.155329403E-2,2.737592533E-2
9.552861634E1,5.829609185E-2,-1.644021645E-2,3.898236528E-2
9.562868066E1,2.653109841E-2,1.288131531E-2,9.660834447E-3
9.572874964E1,-1.439687237E-2,1.837910339E-2,2.941316226E-3
9.582881695E1,-1.745119877E-2,1.288131531E-2,1.393689029E-2
9.592888413E1,-8.899085224E-3,-1.705108024E-2,2.004554309E-2
9.602895201E1,-2.600331046E-2,4.329202231E-3,2.493246458E-2
9.612902569E1,-1.317514107E-2,4.329202231E-3,1.149342954E-2
9.622909157E1,-2.111639082E-2,7.994392887E-3,7.217372768E-3
9.632915242E1,-2.050552331E-2,-1.521848608E-2,9.049968794E-3
9.642921964E1,1.125946827E-2,-1.582935080E-2,2.554333024E-2
9.652928758E1,5.761681125E-3,-2.010540850E-2,2.187814005E-2
9.662935073E1,-2.179567004E-3,2.021169849E-2,2.248900384E-2
9.672942104E1,1.187033392E-2,5.550932605E-3,1.027169917E-2
9.682948812E1,-1.134254597E-2,-1.644021645E-2,8.439103141E-3
9.692955530E1,1.125946827E-2,-1.277502440E-2,2.309986949E-2
9.702962262E1,2.836369537E-2,-4.833776504E-3,1.760208048E-2
9.712968966E1,2.469850332E-2,-2.132713981E-2,2.187814005E-2
9.722975681E1,1.431379374E-2,-1.766194776E-2,1.332602464E-2
9.732982459E1,1.981158182E-2,-7.888102904E-3,1.149342954E-2
9.742989561E1,2.707354724E-3,-6.055507343E-3,4.978551879E-4
9.752995932E1,-5.233893171E-3,1.776823774E-2,4.978551879E-4
9.763002216E1,-1.684033312E-2,1.471391134E-2,-1.416291017E-2
9.773009321E1,-1.439687237E-2,-9.720697999E-3,-1.355204545E-2
9.783016402E1,1.064860262E-2,-2.987925150E-2,9.049968794E-3
9.793022811E1,3.691580892E-2,6.772662979E-3,2.941316226E-3
9.803029352E1,3.141802177E-2,1.349218097E-2,4.978551879E-4
9.813036290E1,-6.455624010E-3,1.471391134E-2,-1.130100718E-4
9.823042795E1,-6.265522540E-2,-7.888102904E-3,4.773912020E-3
9.833049570E1,-4.921618849E-2,-3.110098280E-2,1.332602464E-2
9.843056231E1,1.125946827E-2,-4.222911317E-3,1.699121669E-2
9.853062932E1,-1.378600672E-2,-1.779450453E-3,1.393689029E-2
9.863069470E1,5.157657713E-2,-1.216415968E-2,9.049968794E-3
9.873076558E1,-8.288219571E-3,-2.010540850E-2,3.531717137E-2
9.883083270E1,-2.478158101E-2,-4.222911317E-3,-7.238753606E-4
9.893089781E1,1.064860262E-2,-9.720697999E-3,6.606507581E-3
9.903097120E1,2.775282972E-2,-1.155329403E-2,1.088256482E-2
9.913103457E1,2.775282972E-2,5.550932605E-3,1.149342954E-2
9.923109955E1,1.125946827E-2,5.314527516E-5,7.828238420E-3
9.933116640E1,4.730051756E-2,-1.399675570E-2,2.004554309E-2
9.943123462E1,7.594276685E-3,2.496606437E-3,4.773912020E-3
9.953130026E1,-5.776830390E-2,2.448775433E-2,-1.110858470E-2
9.963137384E1,-2.661417797E-2,-6.666372530E-3,2.309986949E-2
9.973143816E1,-1.134254597E-2,-1.827281155E-2,2.737592533E-2
9.983150094E1,-2.050552331E-2,1.274875714E-3,3.165198490E-2
9.993156865E1,-3.150109947E-2,5.314527516E-5,1.149342954E-2
1.000316419E2,3.874840587E-2,1.349218097E-2,4.773912020E-3
1.001317105E2,-1.568701933E-3,2.496606437E-3,2.004554309E-2
1.002317707E2,-1.378600672E-2,-2.010540850E-2,2.126727253E-2
1.003319453E2,2.638937731E-4,-8.498968557E-3,2.309986949E-2
1.004320135E2,4.913311452E-2,4.329202231E-3,3.165198490E-2
1.005320808E2,1.370292995E-2,1.274875714E-3,2.004554309E-2
1.006321384E2,-1.195341069E-2,-1.094242930E-2,2.126727253E-2
1.007322196E2,-4.371840134E-2,2.496606437E-3,1.638035290E-2
1.008322822E2,-2.172725461E-2,2.496606437E-3,1.454775594E-2
1.009323488E2,9.426872246E-3,-5.444642156E-3,1.515862066E-2
1.010324160E2,-1.622946747E-2,9.216123261E-3,1.088256482E-2
1.011324831E2,3.929085098E-3,1.274875714E-3,1.027169917E-2
1.012325502E2,-9.578366880E-4,-5.577199627E-4,2.941316226E-3
1.013326167E2,2.897455916E-2,-1.155329403E-2,6.606507581E-3
1.014326839E2,1.064860262E-2,-1.277502440E-2,-1.334740547E-3
1.015327520E2,-4.012163263E-3,-1.766194776E-2,1.719585620E-3
1.016328108E2,1.920071617E-2,-6.666372530E-3,1.943467744E-2
1.017328910E2,-2.600331046E-2,-6.666372530E-3,-7.238753606E-4
1.018329528E2,2.836369537E-2,-5.577199627E-4,9.049968794E-3
1.019330201E2,9.426872246E-3,9.216123261E-3,1.088256482E-2
1.020330871E2,1.064860262E-2,-3.049011528E-2,2.126727253E-2
1.021331543E2,-1.684033312E-2,-1.155329403E-2,-2.556471154E-3
1.022332215E2,-9.578366880E-4,5.550932605E-3,1.719585620E-3
1.023332883E2,2.469850332E-2,-1.338589005E-2,-7.238753606E-4
1.024333585E2,2.103331126E-2,-1.399675570E-2,1.149342954E-2
1.025334234E2,-9.509949945E-3,-3.612046130E-3,1.088256482E-2
1.026334928E2,-5.593570694E-2,1.165958494E-2,5.384777207E-3
1.027335571E2,-2.790432423E-3,-1.644021645E-2,4.773912020E-3
1.028336239E2,-1.568701933E-3,5.550932605E-3,1.454775594E-2
1.029336938E2,-1.195341069E-2,1.532477699E-2,3.043025173E-2
1.030337584E2,-7.677354384E-3,-2.390315756E-3,2.493246458E-2
1.031338266E2,-7.677354384E-3,-6.055507343E-3,5.669745803E-2
1.032338930E2,1.736812107E-2,-1.168585150E-3,4.631274939E-2
1.033339610E2,1.858985052E-2,-4.833776504E-3,2.798679098E-2
1.034340268E2,1.553552505E-2,-5.444642156E-3,1.943467744E-2
1.035340937E2,1.553552505E-2,5.550932605E-3,1.108720433E-3
1.036341588E2,-2.179567004E-3,7.383528166E-3,1.515862066E-2
1.037342279E2,4.974398017E-2,-1.827281155E-2,2.941316226E-3
1.038342960E2,3.813754022E-2,-1.155329403E-2,2.248900384E-2
1.039343623E2,-3.469714429E-4,-1.094242930E-2,1.088256482E-2
1.040344296E2,-6.570954621E-2,-9.720697999E-3,6.606507581E-3
1.041344973E2,-2.539244667E-2,-2.315973490E-2,1.719585620E-3
1.042345640E2,1.431379374E-2,6.640105275E-4,1.271515992E-2
1.043346303E2,-7.066489197E-3,3.718336811E-3,1.149342954E-2
1.044346974E2,-2.233812027E-2,-1.460762043E-2,2.941316226E-3
1.045347650E2,-1.195341069E-2,-3.612046130E-3,-1.945605734E-3
1.046348234E2,-1.989465952E-2,-5.444642156E-3,5.384777207E-3
1.047348981E2,-9.509949945E-3,5.550932605E-3,-2.556471154E-3
1.048349665E2,-2.233812027E-2,2.082256228E-2,-1.599550620E-2
1.049350333E2,-2.478158101E-2,1.104871929E-2,-2.454762161E-2
1.050351001E2,1.248119865E-2,-1.399675570E-2,-6.832527462E-3
1.051351747E2,6.012868881E-2,-4.148568958E-2,2.859765664E-2
1.052352400E2,1.485624351E-3,9.216123261E-3,1.393689029E-2
1.053353021E2,-3.577715531E-2,7.994392887E-3,-1.171945035E-2
1.054353692E2,-2.783590741E-2,-2.926838771E-2,-1.049771905E-2
1.055354393E2,-2.172725461E-2,1.593564078E-2,-2.556471154E-3
1.056354970E2,5.096571147E-2,2.082256228E-2,-2.556471154E-3
1.057355700E2,1.981158182E-2,1.837910339E-2,-1.945605734E-3
1.058356376E2,1.003773790E-2,-2.438146435E-2,2.737592533E-2
1.059357043E2,6.983411498E-3,-2.254886739E-2,2.920852043E-2
1.060357716E2,3.202888370E-2,-1.277502440E-2,4.448015243E-2
1.061358397E2,2.408763953E-2,2.496606437E-3,2.493246458E-2
1.062359062E2,1.492465939E-2,-9.109833278E-3,2.065640874E-2
1.063359741E2,5.829609185E-2,-2.193800360E-2,1.760208048E-2
1.064360403E2,3.202888370E-2,-1.155329403E-2,2.676505968E-2
1.065361111E2,1.248119865E-2,7.383528166E-3,1.271515992E-2
1.066361836E2,-7.181821018E-2,2.496606437E-3,7.217372768E-3
1.067362432E2,-6.998561323E-2,-5.444642156E-3,5.995642394E-3
1.068363086E2,-1.806206256E-2,2.496606437E-3,1.027169917E-2
1.069363767E2,-1.867293008E-2,7.383528166E-3,7.828238420E-3
1.070364423E2,-2.294898592E-2,-1.582935080E-2,3.552181413E-3
1.071365145E2,-1.256427635E-2,-1.779450453E-3,-7.238753606E-4
1.072365775E2,-6.455624010E-3,-5.577199627E-4,-1.334740547E-3
1.073366456E2,3.929085098E-3,1.593564078E-2,-8.054258302E-3
1.074367120E2,-2.478158101E-2,2.448775433E-2,-1.966069825E-2
1.075367786E2,-2.294898592E-2,-7.888102904E-3,-1.599550620E-2
1.076368382E2,-8.288219571E-3,-4.222911317E-3,1.108720433E-3
1.077369548E2,4.058100283E-2,-4.759434611E-2,-7.238753606E-4
1.078370276E2,3.263975307E-2,-3.720963374E-2,-3.778201528E-3
1.079370887E2,4.974398017E-2,2.570948564E-2,1.149342954E-2
1.080371568E2,1.064860262E-2,1.960083470E-2,2.676505968E-2
1.081372230E2,-1.073168125E-2,-9.720697999E-3,6.606507581E-3
1.082373023E2,1.553552505E-2,-2.132713981E-2,8.439103141E-3
1.083373578E2,-2.179567004E-3,-8.498968557E-3,5.384777207E-3
1.084374246E2,2.775282972E-2,-4.222911317E-3,1.699121669E-2
1.085374968E2,-1.745119877E-2,1.885741018E-3,3.104111739E-2
1.086375560E2,-9.509949945E-3,-3.232271224E-2,4.142582789E-2
1.087376255E2,1.492465939E-2,-9.109833278E-3,2.615419589E-2
1.088376930E2,-1.073168125E-2,7.994392887E-3,2.615419589E-2
1.089377602E2,8.816007525E-3,3.107471392E-3,8.439103141E-3
1.090378278E2,2.638937731E-4,-1.705108024E-2,2.065640874E-2
1.091378942E2,2.775282972E-2,-6.055507343E-3,2.187814005E-2
1.092379615E2,-1.073168125E-2,2.632035129E-2,2.432160079E-2
1.093380287E2,-3.699888662E-2,3.107471392E-3,1.882381178E-2
1.094380975E2,-4.188580811E-2,-1.644021645E-2,7.828238420E-3
1.095381628E2,-1.928379387E-2,-1.216415968E-2,1.576948725E-2
1.096382212E2,-1.568701933E-3,-2.377059869E-2,-1.130100718E-4
1.097382979E2,-9.578366880E-4,-1.094242930E-2,6.606507581E-3
1.098383648E2,6.983411498E-3,4.329202231E-3,1.149342954E-2
1.099384314E2,3.318219911E-3,4.708976671E-2,-1.049771905E-2
1.100384995E2,1.553552505E-2,-3.001180943E-3,2.941316226E-3
1.101385656E2,7.594276685E-3,-2.560319565E-2,-7.443393115E-3
1.102386335E2,2.225504257E-2,1.885741018E-3,7.828238420E-3
1.103386998E2,4.668965191E-2,-1.705108024E-2,5.995642394E-3
1.104387670E2,7.594276685E-3,1.349218097E-2,-1.660637185E-2
1.105388339E2,4.363532737E-2,-6.666372530E-3,1.515862066E-2
1.106388993E2,-3.469714429E-4,-2.499233000E-2,1.108720433E-3
1.107389681E2,-8.288219571E-3,-7.888102904E-3,9.660834447E-3
1.108390354E2,2.096489538E-3,4.940067418E-3,1.393689029E-2
1.109391028E2,9.426872246E-3,-7.277237717E-3,1.088256482E-2
1.110391695E2,2.638937731E-4,-1.155329403E-2,1.576948725E-2
1.111392368E2,-3.516628966E-2,-1.779450453E-3,1.719585620E-3
1.112393043E2,-5.227051675E-2,2.496606437E-3,-4.999931902E-3
1.113393747E2,-4.677273333E-2,-2.390315756E-3,2.941316226E-3
1.114394385E2,-1.012081560E-2,1.410304569E-2,7.828238420E-3
1.115395053E2,-2.355985157E-2,1.776823774E-2,1.576948725E-2
1.116395741E2,1.187033392E-2,-1.888367720E-2,1.088256482E-2
1.117396420E2,1.431379374E-2,-2.377059869E-2,2.126727253E-2
1.118397064E2,8.816007525E-3,9.216123261E-3,2.065640874E-2
1.119397738E2,2.286590822E-2,1.165958494E-2,2.126727253E-2
1.120398414E2,-1.561860275E-2,5.314527516E-5,1.882381178E-2
1.121399085E2,-3.401297610E-3,-1.155329403E-2,2.615419589E-2
1.122399749E2,-9.578366880E-4,-7.888102904E-3,2.493246458E-2
1.123400429E2,1.614639163E-2,-1.399675570E-2,2.493246458E-2
1.124401097E2,1.492465939E-2,1.885741018E-3,1.638035290E-2
1.125401759E2,-1.568701933E-3,1.043785457E-2,1.027169917E-2
1.126402438E2,8.747590473E-4,1.410304569E-2,2.126727253E-2
1.127403124E2,2.225504257E-2,-1.766194776E-2,9.660834447E-3
1.128403778E2,3.386148065E-2,-2.254886739E-2,8.439103141E-3
1.129404451E2,3.202888370E-2,-1.521848608E-2,5.995642394E-3
1.130405133E2,5.890695751E-2,-1.582935080E-2,1.699121669E-2
1.131405796E2,2.164417692E-2,-6.666372530E-3,1.271515992E-2
1.132406464E2,-2.111639082E-2,-5.577199627E-4,3.552181413E-3
1.133407148E2,-3.089023381E-2,-1.155329403E-2,-4.999931902E-3
1.134407810E2,-6.021176651E-2,-7.277237717E-3,-1.334740547E-3
1.135408476E2,-3.333369270E-2,3.107471392E-3,1.719585620E-3
1.136409119E2,-1.989465952E-2,9.826988913E-3,1.454775594E-2
1.137409865E2,-8.899085224E-3,-1.779450453E-3,5.384777207E-3
1.138410497E2,1.248119865E-2,-6.666372530E-3,9.660834447E-3
1.139411168E2,-4.623028450E-3,4.329202231E-3,1.393689029E-2
1.140411836E2,1.003773790E-2,-2.390315756E-3,2.371073514E-2
1.141412511E2,-6.455624010E-3,-3.001180943E-3,1.576948725E-2
1.142413209E2,-1.012081560E-2,-5.577199627E-4,1.149342954E-2
1.143413846E2,-3.401297610E-3,-6.666372530E-3,1.088256482E-2
1.144414513E2,-7.677354384E-3,1.274875714E-3,9.049968794E-3
1.145415190E2,6.372546311E-3,-7.888102904E-3,1.638035290E-2
1.146415781E2,-1.378600672E-2,1.274875714E-3,5.384777207E-3
1.147416536E2,-2.790432423E-3,1.227045059E-2,1.210429519E-2
1.148417201E2,2.408763953E-2,-1.399675570E-2,5.384777207E-3
1.149417878E2,2.103331126E-2,-3.612046130E-3,7.828238420E-3
1.150418553E2,1.485624351E-3,-6.666372530E-3,7.828238420E-3
1.151420200E2,9.426872246E-3,-1.888367720E-2,7.217372768E-3
1.152420876E2,2.897455916E-2,1.274875714E-3,7.828238420E-3
1.153421595E2,-5.233893171E-3,3.718336811E-3,7.217372768E-3
1.154422219E2,4.539950285E-3,-1.094242930E-2,4.163046833E-3
1.155422893E2,-8.288219571E-3,-9.720697999E-3,7.828238420E-3
1.156423496E2,5.035484210E-2,-2.377059869E-2,1.576948725E-2
1.157424228E2,2.286590822E-2,-1.460762043E-2,1.210429519E-2
1.158424916E2,2.638937731E-4,-2.621405944E-2,5.384777207E-3
1.159425581E2,-2.111639082E-2,-1.168585150E-3,1.332602464E-2
1.160426243E2,1.248119865E-2,-2.390315756E-3,9.049968794E-3
1.161426915E2,2.638937731E-4,-7.277237717E-3,1.088256482E-2
1.162427587E2,-1.439687237E-2,3.107471392E-3,4.773912020E-3
1.163428257E2,7.594276685E-3,4.940067418E-3,1.393689029E-2
1.164428934E2,1.248119865E-2,2.204429358E-2,4.163046833E-3
1.165429601E2,-1.256427635E-2,-4.833776504E-3,-4.999931902E-3
1.166430200E2,2.638937731E-4,3.107471392E-3,-1.945605734E-3
1.167430949E2,-1.195341069E-2,2.496606437E-3,9.049968794E-3
1.168431626E2,2.103331126E-2,-4.087482393E-2,9.049968794E-3
1.169432291E2,5.768522620E-2,-2.987925150E-2,2.981938794E-2
1.170432952E2,1.187033392E-2,-1.399675570E-2,1.882381178E-2
1.171433627E2,3.325061873E-2,2.387689054E-2,-2.556471154E-3
1.172434308E2,-3.944234923E-2,2.082256228E-2,1.027169917E-2
1.173434965E2,5.150815938E-3,-2.438146435E-2,9.049968794E-3
1.174435640E2,-7.066489197E-3,1.349218097E-2,1.332602464E-2
1.175436312E2,-7.066489197E-3,5.314527516E-5,9.049968794E-3
1.176436932E2,-1.073168125E-2,3.107471392E-3,2.941316226E-3
1.177437655E2,-9.578366880E-4,-5.444642156E-3,1.760208048E-2
1.178438325E2,-8.899085224E-3,1.288131531E-2,2.615419589E-2
1.179438998E2,2.638937731E-4,6.640105275E-4,1.699121669E-2
1.180439741E2,-4.012163263E-3,-1.033156365E-2,1.760208048E-2
1.181440346E2,-3.401297610E-3,3.718336811E-3,1.393689029E-2
1.182441010E2,3.929085098E-3,-1.094242930E-2,1.210429519E-2
1.183441739E2,-2.050552331E-2,9.216123261E-3,1.393689029E-2
1.184442352E2,-3.469714429E-4,4.940067418E-3,1.088256482E-2
1.185443021E2,9.426872246E-3,-3.612046130E-3,1.515862066E-2
1.186443627E2,6.372546311E-3,-6.055507343E-3,1.332602464E-2
1.187444367E2,-2.478158101E-2,-3.001180943E-3,1.210429519E-2
1.188445037E2,-2.844677307E-2,-1.216415968E-2,1.760208048E-2
1.189445712E2,1.675725542E-2,-6.055507343E-3,1.638035290E-2
1.190446380E2,-3.401297610E-3,-1.168585150E-3,4.978551879E-4
1.191447047E2,-9.509949945E-3,-9.720697999E-3,7.217372768E-3
1.192447729E2,-2.478158101E-2,-9.720697999E-3,1.393689029E-2
1.193448396E2,4.180273041E-2,-6.666372530E-3,1.027169917E-2
1.194449047E2,3.141802177E-2,1.837910339E-2,2.004554309E-2
1.195449739E2,-7.677354384E-3,-4.222911317E-3,2.330451040E-3
1.196450341E2,-2.661417797E-2,-1.888367720E-2,1.088256482E-2
1.197451074E2,-2.050552331E-2,-1.582935080E-2,1.943467744E-2
1.198451789E2,3.752667084E-2,5.550932605E-3,1.638035290E-2
1.199452417E2,-1.073168125E-2,7.994392887E-3,3.837150335E-2
1.200453092E2,1.309206430E-2,-1.033156365E-2,3.714976832E-2
1.201453778E2,1.736812107E-2,-8.498968557E-3,3.959323093E-2
1.202454434E2,3.569407761E-2,-1.033156365E-2,3.165198490E-2
1.203455103E2,2.592023462E-2,4.940067418E-3,1.332602464E-2
1.204455790E2,-1.568701933E-3,1.104871929E-2,3.653890640E-2
1.205456448E2,4.668965191E-2,5.314527516E-5,3.653890640E-2
1.206457049E2,2.653109841E-2,3.107471392E-3,4.997793958E-2
1.207457795E2,-8.899085224E-3,5.550932605E-3,1.271515992E-2
1.208458468E2,-6.387695670E-2,7.383528166E-3,-7.238753606E-4
1.209459154E2,-5.899003521E-2,-2.377059869E-2,1.821294799E-2
1.210459815E2,2.638937731E-4,-4.392915219E-2,1.515862066E-2
1.211460476E2,4.363532737E-2,4.940067418E-3,-1.049771905E-2
1.212461147E2,1.553552505E-2,2.204429358E-2,-2.027156204E-2
1.213461841E2,-4.494013637E-2,2.021169849E-2,-3.798665479E-2
1.214462517E2,-6.455624010E-3,1.274875714E-3,1.149342954E-2
1.215463170E2,4.668965191E-2,-3.720963374E-2,-1.130100718E-4
1.216463826E2,2.469850332E-2,-1.216415968E-2,-5.610797554E-3
1.217464512E2,1.431379374E-2,-1.277502440E-2,3.552181413E-3
1.218465188E2,-1.073168125E-2,-1.277502440E-2,-8.665123954E-3
1.219465843E2,2.530936897E-2,-1.399675570E-2,4.773912020E-3
1.220466520E2,2.653109841E-2,6.640105275E-4,-6.221662741E-3
1.221467191E2,1.309206430E-2,-8.498968557E-3,7.217372768E-3
1.222467862E2,-9.578366880E-4,5.314527516E-5,4.978551879E-4
1.223468533E2,9.426872246E-3,-4.222911317E-3,2.330451040E-3
1.224470997E2,-2.722504176E-2,1.043785457E-2,4.773912020E-3
1.225471709E2,-1.684033312E-2,-4.222911317E-3,1.393689029E-2
1.226472313E2,-2.966850251E-2,9.216123261E-3,6.606507581E-3
1.227473001E2,-1.561860275E-2,5.550932605E-3,1.149342954E-2
1.228473679E2,-5.844758358E-3,2.496606437E-3,8.439103141E-3
1.229474345E2,-4.012163263E-3,1.274875714E-3,1.821294799E-2
1.230475016E2,-1.622946747E-2,5.550932605E-3,2.371073514E-2
1.231475688E2,-9.578366880E-4,-6.055507343E-3,2.065640874E-2
1.232476358E2,-7.677354384E-3,-6.666372530E-3,7.828238420E-3
1.233477029E2,-5.844758358E-3,-2.390315756E-3,1.332602464E-2
1.234477701E2,-7.677354384E-3,-9.720697999E-3,1.454775594E-2
1.235478365E2,-1.378600672E-2,-9.720697999E-3,1.271515992E-2
1.236479096E2,1.125946827E-2,-4.833776504E-3,1.454775594E-2
1.237479768E2,-2.790432423E-3,5.314527516E-5,9.660834447E-3
1.238480385E2,8.747590473E-4,6.772662979E-3,1.027169917E-2
1.239481058E2,1.614639163E-2,-1.155329403E-2,2.941316226E-3
1.240481732E2,2.042244747E-2,-1.338589005E-2,1.699121669E-2
1.241482406E2,1.064860262E-2,-2.390315756E-3,9.049968794E-3
1.242483073E2,1.248119865E-2,-1.168585150E-3,6.606507581E-3
1.243483740E2,1.187033392E-2,-6.666372530E-3,1.210429519E-2
1.244484412E2,4.539950285E-3,-5.444642156E-3,5.384777207E-3
1.245485081E2,1.675725542E-2,-1.277502440E-2,1.882381178E-2
1.246485692E2,5.951782316E-2,-4.833776504E-3,4.163046833E-3
1.247486426E2,1.431379374E-2,1.165958494E-2,1.210429519E-2
1.248487112E2,-7.677354384E-3,-7.888102904E-3,1.271515992E-2
1.249487768E2,-1.989465952E-2,-1.399675570E-2,7.828238420E-3
1.250488448E2,-4.494013637E-2,-5.577199627E-4,1.393689029E-2
1.251489117E2,-2.111639082E-2,-3.612046130E-3,2.554333024E-2
1.252489781E2,-1.378600672E-2,-8.498968557E-3,2.859765664E-2
1.253490452E2,-5.844758358E-3,-2.390315756E-3,3.348457813E-2
1.254491124E2,4.539950285E-3,1.532477699E-2,3.470630944E-2
1.255491843E2,8.205141872E-3,2.387689054E-2,4.142582789E-2
1.256492394E2,-1.568701933E-3,1.274875714E-3,1.699121669E-2
1.257493141E2,8.205141872E-3,-2.377059869E-2,2.248900384E-2
1.258493810E2,-1.568701933E-3,-2.499233000E-2,1.515862066E-2
1.259494482E2,-8.899085224E-3,6.640105275E-4,1.882381178E-2
1.260495152E2,2.042244747E-2,4.329202231E-3,4.773912020E-3
1.261495822E2,-2.179567004E-3,-1.168585150E-3,5.995642394E-3
1.262496500E2,1.125946827E-2,-1.216415968E-2,1.393689029E-2
1.263497178E2,2.164417692E-2,-1.216415968E-2,2.004554309E-2
1.264497861E2,1.675725542E-2,-2.132713981E-2,1.271515992E-2
1.265498500E2,3.080715612E-2,-9.109833278E-3,1.149342954E-2
1.266499113E2,6.440474838E-2,-1.827281155E-2,2.126727253E-2
1.267499849E2,1.431379374E-2,1.885741018E-3,1.515862066E-2
1.268500516E2,-2.478158101E-2,-5.444642156E-3,6.606507581E-3
1.269501209E2,-9.578366880E-4,-2.926838771E-2,-1.334740547E-3
1.270501909E2,-4.188580811E-2,6.640105275E-4,1.108720433E-3
1.271502547E2,-2.661417797E-2,-1.521848608E-2,-1.130100718E-4
1.272503205E2,-1.684033312E-2,-8.498968557E-3,-3.167336341E-3
1.273503938E2,3.318219911E-3,4.940067418E-3,2.941316226E-3
1.274504551E2,3.202888370E-2,-2.010540850E-2,-3.778201528E-3
1.275505210E2,-3.469714429E-4,-1.033156365E-2,-1.904983260E-2
1.276505846E2,-1.073168125E-2,-3.001180943E-3,5.384777207E-3
1.277506571E2,-1.256427635E-2,-7.888102904E-3,1.149342954E-2
1.278507237E2,3.141802177E-2,1.274875714E-3,1.699121669E-2
1.279507966E2,4.302445799E-2,-4.833776504E-3,1.760208048E-2
1.280508578E2,3.080715612E-2,1.776823774E-2,7.217372768E-3
1.281509271E2,4.539950285E-3,5.314527516E-5,1.638035290E-2
1.282509924E2,-7.677354384E-3,-2.926838771E-2,2.737592533E-2
1.283510589E2,-4.012163263E-3,-7.277237717E-3,8.439103141E-3
1.284511266E2,-1.568701933E-3,1.885741018E-3,8.439103141E-3
1.285511927E2,6.983411498E-3,-1.779450453E-3,8.439103141E-3
1.286512587E2,1.309206430E-2,1.885741018E-3,2.554333024E-2
1.287513337E2,6.983411498E-3,-1.277502440E-2,2.248900384E-2
1.288513939E2,-1.806206256E-2,-3.232271224E-2,1.760208048E-2
1.289514620E2,2.103331126E-2,-5.577199627E-4,2.493246458E-2
1.290515276E2,6.372546311E-3,1.227045059E-2,1.882381178E-2
1.291515955E2,-1.073168125E-2,1.274875714E-3,4.163046833E-3
1.292516629E2,-1.378600672E-2,7.383528166E-3,6.606507581E-3
1.293517312E2,8.747590473E-4,-2.193800360E-2,2.371073514E-2
1.294518025E2,-7.677354384E-3,-9.720697999E-3,8.439103141E-3
1.295518638E2,8.816007525E-3,-2.390315756E-3,1.699121669E-2
1.296519351E2,5.150815938E-3,-3.612046130E-3,5.384777207E-3
1.297519990E2,-1.073168125E-2,-3.612046130E-3,5.995642394E-3
1.298521297E2,-2.417071536E-2,-1.338589005E-2,4.773912020E-3
1.299521980E2,-9.509949945E-3,-4.833776504E-3,8.439103141E-3
1.300522632E2,-2.844677307E-2,3.609419614E-2,-5.610797554E-3
1.301523310E2,-1.867293008E-2,2.204429358E-2,-6.221662741E-3
1.302523980E2,-1.134254597E-2,-2.865752019E-2,-1.843896694E-2
1.303524646E2,-2.050552331E-2,-2.682492696E-2,4.773912020E-3
1.304525430E2,2.530936897E-2,1.274875714E-3,1.576948725E-2
1.305525979E2,6.379388273E-2,-2.193800360E-2,8.439103141E-3
1.306526602E2,6.257214397E-2,5.550932605E-3,1.393689029E-2
1.307527380E2,-2.111639082E-2,-9.109833278E-3,1.943467744E-2
1.308528001E2,-2.600331046E-2,-3.293357790E-2,8.439103141E-3
1.309528680E2,-3.577715531E-2,4.940067418E-3,7.828238420E-3
1.310529374E2,3.263975307E-2,-9.720697999E-3,2.737592533E-2
1.311530017E2,1.370292995E-2,8.605258539E-3,2.371073514E-2
1.312530686E2,2.707354724E-3,1.274875714E-3,2.798679098E-2
1.313531362E2,1.248119865E-2,-1.399675570E-2,2.432160079E-2
1.314532030E2,1.370292995E-2,-1.582935080E-2,3.104111739E-2
1.315532789E2,1.492465939E-2,-1.705108024E-2,2.004554309E-2
1.316533328E2,5.761681125E-3,-1.460762043E-2,1.454775594E-2
1.317534069E2,1.064860262E-2,4.329202231E-3,1.088256482E-2
1.318534768E2,-1.500773709E-2,4.329202231E-3,9.660834447E-3
1.319535438E2,1.248119865E-2,-8.498968557E-3,-7.238753606E-4
1.320536068E2,2.530936897E-2,1.898996718E-2,2.676505968E-2
1.321536726E2,-1.568701933E-3,3.107471392E-3,2.187814005E-2
1.322537406E2,-7.914859056E-2,8.605258539E-3,-2.556471154E-3
1.323538076E2,-4.432927072E-2,-2.560319565E-2,7.828238420E-3
1.324538742E2,-4.623028450E-3,-1.338589005E-2,-1.130100718E-4
1.325539406E2,-4.623028450E-3,1.288131531E-2,7.828238420E-3
1.326540017E2,-2.179567004E-3,-3.612046130E-3,-8.665123954E-3
1.327540749E2,-7.677354384E-3,-6.055507343E-3,1.210429519E-2
1.328541434E2,1.614639163E-2,5.314527516E-5,1.882381178E-2
1.329542096E2,1.485624351E-3,6.161797326E-3,-2.699108049E-2
1.330542769E2,-4.012163263E-3,1.885741018E-3,-6.221662741E-3
1.331543508E2,-5.844758358E-3,-1.521848608E-2,1.332602464E-2
1.332544163E2,4.485705495E-2,-9.720697999E-3,3.552181413E-3
1.333544790E2,3.202888370E-2,2.021169849E-2,1.454775594E-2
1.334545444E2,2.096489538E-3,1.898996718E-2,1.332602464E-2
1.335546160E2,-3.455542400E-2,-5.444642156E-3,2.187814005E-2
1.336546744E2,-2.111639082E-2,-3.171184659E-2,2.920852043E-2
1.337547464E2,1.981158182E-2,-3.612046130E-3,1.821294799E-2
1.338548131E2,6.983411498E-3,-2.390315756E-3,2.981938794E-2
1.339548809E2,2.836369537E-2,-2.010540850E-2,3.470630944E-2
1.340549476E2,4.668965191E-2,-2.987925150E-2,4.081496224E-2
1.341550151E2,2.042244747E-2,-1.216415968E-2,1.638035290E-2
1.342550917E2,-1.568701933E-3,1.532477699E-2,1.454775594E-2
1.343551506E2,1.125946827E-2,-1.460762043E-2,9.049968794E-3
1.344552171E2,3.202888370E-2,-1.277502440E-2,1.943467744E-2
1.345552912E2,3.141802177E-2,1.654650643E-2,2.309986949E-2
1.346553556E2,-1.317514107E-2,-7.277237717E-3,2.330451040E-3
1.347554186E2,-2.722504176E-2,-3.232271224E-2,-1.334740547E-3
1.348554850E2,-2.905763872E-2,-9.109833278E-3,-1.945605734E-3
1.349555526E2,-1.195341069E-2,-3.001180943E-3,4.978551879E-4
1.350556197E2,3.318219911E-3,5.197669193E-2,4.163046833E-3
1.351556892E2,6.983411498E-3,-5.577199627E-4,1.515862066E-2
1.352557565E2,-9.578366880E-4,-1.460762043E-2,-4.999931902E-3
1.353558202E2,-2.179567004E-3,-4.222911317E-3,-1.130100718E-4
1.354558932E2,-1.622946747E-2,4.940067418E-3,-3.167336341E-3
1.355559598E2,-5.233893171E-3,7.383528166E-3,7.828238420E-3
1.356560211E2,-1.439687237E-2,-9.720697999E-3,2.371073514E-2
1.357560968E2,-1.622946747E-2,-6.055507343E-3,2.065640874E-2
1.358561568E2,-1.256427635E-2,6.640105275E-4,2.126727253E-2
1.359562228E2,-2.179567004E-3,-1.779450453E-3,1.271515992E-2
1.360562897E2,-5.844758358E-3,1.274875714E-3,2.737592533E-2
1.361563585E2,2.164417692E-2,-1.216415968E-2,1.760208048E-2
1.362564357E2,2.530936897E-2,-1.277502440E-2,1.210429519E-2
1.363564924E2,2.408763953E-2,-3.612046130E-3,1.210429519E-2
1.364565607E2,3.019629046E-2,-1.094242930E-2,-7.238753606E-4
1.365566249E2,2.638937731E-4,-1.779450453E-3,7.828238420E-3
1.366566973E2,-4.012163263E-3,6.772662979E-3,-2.556471154E-3
1.367567607E2,8.747590473E-4,-9.720697999E-3,-1.945605734E-3
1.368568281E2,1.064860262E-2,-1.460762043E-2,2.941316226E-3
1.369568936E2,-8.288219571E-3,-3.612046130E-3,9.660834447E-3
1.370569618E2,-2.233812027E-2,-1.705108024E-2,2.330451040E-3
1.371570292E2,4.539950285E-3,-4.222911317E-3,1.576948725E-2
1.372571023E2,-3.089023381E-2,2.204429358E-2,9.660834447E-3
1.373571629E2,-2.179567004E-3,-1.094242930E-2,-1.355204545E-2
1.374572401E2,2.103331126E-2,-2.254886739E-2,-1.904983260E-2
1.375573002E2,-1.568701933E-3,2.204429358E-2,-9.886854328E-3
1.376573607E2,-4.249667376E-2,1.104871929E-2,6.606507581E-3
1.377574379E2,-1.073168125E-2,-1.033156365E-2,-6.221662741E-3
1.378576248E2,1.485624351E-3,-8.498968557E-3,1.719585620E-3
1.379576838E2,-2.790432423E-3,-2.071627229E-2,8.439103141E-3
1.380577483E2,1.797898673E-2,-1.705108024E-2,1.271515992E-2
1.381578158E2,6.372546311E-3,1.776823774E-2,6.606507581E-3
1.382578885E2,-1.256427635E-2,-1.582935080E-2,1.271515992E-2
1.383579509E2,-1.561860275E-2,-1.766194776E-2,1.210429519E-2
1.384580287E2,4.302445799E-2,-8.498968557E-3,2.737592533E-2
1.385580836E2,1.981158182E-2,-2.390315756E-3,1.027169917E-2
1.386581476E2,3.508321196E-2,-5.577199627E-4,-1.130100718E-4
1.387582182E2,1.064860262E-2,1.043785457E-2,1.027169917E-2
1.388582939E2,3.929085098E-3,-1.705108024E-2,1.108720433E-3
1.389583587E2,2.638937731E-4,-9.720697999E-3,4.163046833E-3
1.390584201E2,-1.867293008E-2,1.837910339E-2,1.271515992E-2
1.391584871E2,-1.622946747E-2,-2.010540850E-2,7.828238420E-3
1.392585543E2,-4.066407681E-2,-4.222911317E-3,7.217372768E-3
1.393586215E2,4.539950285E-3,1.532477699E-2,9.049968794E-3
1.394586885E2,-1.568701933E-3,4.940067418E-3,-6.221662741E-3
1.395587551E2,-2.050552331E-2,1.885741018E-3,3.552181413E-3
1.396588195E2,-8.288219571E-3,-1.155329403E-2,1.515862066E-2
1.397588903E2,2.592023462E-2,-9.109833278E-3,1.699121669E-2
1.398589585E2,1.858985052E-2,-5.444642156E-3,1.515862066E-2
1.399590248E2,-2.233812027E-2,4.329202231E-3,1.271515992E-2
1.400590911E2,-2.539244667E-2,-1.033156365E-2,1.576948725E-2
1.401591583E2,1.248119865E-2,-1.033156365E-2,2.859765664E-2
1.402592255E2,7.594276685E-3,-5.577199627E-4,1.943467744E-2
1.403592932E2,-2.966850251E-2,2.496606437E-3,8.439103141E-3
1.404593605E2,3.447234631E-2,-7.888102904E-3,1.638035290E-2
1.405594258E2,4.241359606E-2,-6.055507343E-3,2.126727253E-2
1.406594894E2,2.164417692E-2,6.161797326E-3,1.332602464E-2
1.407595611E2,-1.317514107E-2,-1.033156365E-2,9.049968794E-3
1.408596282E2,-1.568701933E-3,-2.804665640E-2,7.828238420E-3
1.409596960E2,-1.867293008E-2,4.329202231E-3,-3.778201528E-3
1.410597625E2,-2.417071536E-2,-6.666372530E-3,-7.443393115E-3
1.411598297E2,-1.622946747E-2,3.718336811E-3,-6.832527462E-3
1.412598962E2,2.638937731E-4,-9.109833278E-3,-1.130100718E-4
1.413599646E2,3.202888370E-2,-2.390315756E-3,-8.665123954E-3
1.414600317E2,1.003773790E-2,-7.888102904E-3,-8.665123954E-3
1.415600970E2,1.920071617E-2,-5.444642156E-3,-2.027156204E-2
1.416601630E2,8.816007525E-3,-1.949454285E-2,2.330451040E-3
1.417602346E2,1.431379374E-2,-1.949454285E-2,1.719585620E-3
1.418603054E2,3.997013345E-2,-2.390315756E-3,1.027169917E-2
1.419603673E2,1.675725542E-2,1.715737209E-2,1.149342954E-2
1.420604335E2,-2.722504176E-2,-1.460762043E-2,3.552181413E-3
1.421605009E2,-7.677354384E-3,-2.499233000E-2,1.760208048E-2
1.422605699E2,-1.195341069E-2,1.654650643E-2,1.638035290E-2
1.423606414E2,-1.317514107E-2,1.165958494E-2,1.638035290E-2
1.424607078E2,-6.455624010E-3,-1.779450453E-3,2.981938794E-2
1.425607700E2,-1.622946747E-2,-1.399675570E-2,3.959323093E-2
1.426608432E2,2.103331126E-2,-3.612046130E-3,2.859765664E-2
1.427609123E2,8.816007525E-3,9.826988913E-3,1.882381178E-2
1.428609719E2,-9.509949945E-3,1.885741018E-3,4.773912020E-3
1.429610379E2,8.747590473E-4,-1.168585150E-3,1.210429519E-2
1.430611055E2,-2.233812027E-2,-8.498968557E-3,1.210429519E-2
1.431611727E2,1.431379374E-2,-5.577199627E-4,1.638035290E-2
1.432612453E2,5.150815938E-3,-6.666372530E-3,7.217372768E-3
1.433613112E2,-2.233812027E-2,-7.277237717E-3,-7.238753606E-4
1.434613741E2,-4.623028450E-3,-9.720697999E-3,9.049968794E-3
1.435614406E2,2.958542667E-2,-4.833776504E-3,-3.167336341E-3
1.436615037E2,1.485624351E-3,6.772662979E-3,-2.088242956E-2
1.437615751E2,-2.179567004E-3,1.593564078E-2,-1.721723750E-2
1.438616416E2,1.736812107E-2,-1.582935080E-2,-1.355204545E-2
1.439617102E2,8.816007525E-3,-1.949454285E-2,-6.221662741E-3
1.440617757E2,8.816007525E-3,-3.001180943E-3,7.828238420E-3
1.441618495E2,1.858985052E-2,-1.460762043E-2,5.995642394E-3
1.442619099E2,7.051339746E-2,-2.390315756E-3,8.439103141E-3
1.443619768E2,3.813754022E-2,-4.222911317E-3,1.088256482E-2
1.444620439E2,-5.233893171E-3,-4.833776504E-3,3.552181413E-3
1.445621113E2,-5.837916955E-2,-3.001180943E-3,1.454775594E-2
1.446621747E2,-2.539244667E-2,-2.193800360E-2,7.217372768E-3
1.447622460E2,-1.806206256E-2,-1.168585150E-3,1.088256482E-2
1.448623135E2,-1.500773709E-2,2.204429358E-2,1.393689029E-2
1.449623856E2,-1.439687237E-2,-9.720697999E-3,1.821294799E-2
1.450624470E2,-4.249667376E-2,3.107471392E-3,1.454775594E-2
1.451625202E2,-5.233893171E-3,-6.666372530E-3,3.592804074E-2
1.452626752E2,1.309206430E-2,-3.612046130E-3,2.004554309E-2
1.453627429E2,-1.806206256E-2,1.349218097E-2,1.515862066E-2
1.454628105E2,-1.568701933E-3,-5.577199627E-4,1.027169917E-2
1.455628766E2,6.372546311E-3,-1.460762043E-2,9.049968794E-3
1.456629410E2,8.816007525E-3,-1.094242930E-2,1.210429519E-2
1.457630164E2,1.309206430E-2,-9.109833278E-3,6.606507581E-3
1.458630793E2,4.852224886E-2,-5.444642156E-3,5.995642394E-3
1.459631525E2,5.279830471E-2,-3.001180943E-3,2.941316226E-3
1.460632132E2,-3.469714429E-4,-1.399675570E-2,-1.130100718E-4
1.461632803E2,-3.760975227E-2,-5.577199627E-4,3.552181413E-3
1.462633476E2,-3.577715531E-2,-1.216415968E-2,1.149342954E-2
1.463634163E2,1.675725542E-2,-2.390315756E-3,5.384777207E-3
1.464634825E2,1.125946827E-2,1.043785457E-2,1.027169917E-2
1.465635473E2,1.858985052E-2,-7.888102904E-3,8.439103141E-3
1.466636134E2,-1.500773709E-2,-1.168585150E-3,1.149342954E-2
1.467636826E2,2.096489538E-3,-1.168585150E-3,1.149342954E-2
1.468637502E2,-4.623028450E-3,1.885741018E-3,1.271515992E-2
1.469638169E2,-1.378600672E-2,5.314527516E-5,4.773912020E-3
1.470638846E2,-2.172725461E-2,-6.666372530E-3,7.217372768E-3
1.471639516E2,-7.677354384E-3,-1.779450453E-3,1.088256482E-2
1.472640232E2,-4.623028450E-3,-5.577199627E-4,8.439103141E-3
1.473640871E2,-2.050552331E-2,-5.444642156E-3,1.088256482E-2
1.474641525E2,-1.684033312E-2,6.772662979E-3,9.049968794E-3
1.475642241E2,-2.179567004E-3,-3.001180943E-3,1.760208048E-2
1.476642915E2,1.736812107E-2,-1.888367720E-2,5.995642394E-3
1.477643543E2,-4.012163263E-3,-5.444642156E-3,1.393689029E-2
1.478644351E2,4.539950285E-3,-9.720697999E-3,1.699121669E-2
1.479644892E2,3.935926780E-2,-1.399675570E-2,-1.130100718E-4
1.480645593E2,2.707354724E-3,-3.001180943E-3,-4.999931902E-3
1.481646221E2,1.858985052E-2,1.104871929E-2,4.773912020E-3
1.482646899E2,6.372546311E-3,-6.055507343E-3,-9.275988676E-3
1.483647574E2,2.347677201E-2,-4.833776504E-3,-6.221662741E-3
1.484648256E2,-9.578366880E-4,1.885741018E-3,-1.334740547E-3
1.485648890E2,8.816007525E-3,-1.949454285E-2,1.699121669E-2
1.486649581E2,5.150815938E-3,-1.521848608E-2,1.576948725E-2
1.487650260E2,3.019629046E-2,1.274875714E-3,2.432160079E-2
1.488650985E2,4.058100283E-2,3.718336811E-3,1.943467744E-2
1.489651604E2,1.248119865E-2,1.227045059E-2,1.271515992E-2
1.490652270E2,-4.005321115E-2,-3.001180943E-3,1.393689029E-2
1.491652935E2,-7.677354384E-3,-4.209655896E-2,1.699121669E-2
1.492653607E2,-1.867293008E-2,1.593564078E-2,5.995642394E-3
1.493654301E2,-1.684033312E-2,2.570948564E-2,2.615419589E-2
1.494654952E2,-2.905763872E-2,3.107471392E-3,3.959323093E-2
1.495655606E2,-3.272282705E-2,-1.399675570E-2,6.097351387E-2
1.496656286E2,4.913311452E-2,5.314527516E-5,5.608659238E-2
1.497656974E2,4.180273041E-2,-1.460762043E-2,6.524956971E-2
1.498657673E2,2.592023462E-2,-2.560319565E-2,1.943467744E-2
1.499658303E2,-2.661417797E-2,-5.444642156E-3,2.330451040E-3
1.500658982E2,-1.745119877E-2,-7.277237717E-3,2.126727253E-2
1.501659656E2,4.424619302E-2,1.274875714E-3,1.821294799E-2
1.502660345E2,4.058100283E-2,-3.612046130E-3,2.981938794E-2
1.503660989E2,2.638937731E-4,-1.779450453E-3,-1.171945035E-2
1.504661722E2,-6.754214317E-2,-7.888102904E-3,-1.945605734E-3
1.505662329E2,-2.050552331E-2,-2.377059869E-2,7.828238420E-3
1.506663126E2,1.248119865E-2,-1.033156365E-2,-7.238753606E-4
1.507663686E2,1.736812107E-2,-4.833776504E-3,5.384777207E-3
1.508664356E2,2.707354724E-3,2.265515924E-2,-1.966069825E-2
1.509665028E2,1.064860262E-2,2.876381204E-2,-2.149329334E-2
1.510665691E2,-2.179567004E-3,-1.155329403E-2,-1.782810129E-2
1.511666360E2,-3.944234923E-2,-2.499233000E-2,-2.515848540E-2
1.512667066E2,-2.294898592E-2,-9.109833278E-3,-1.049771905E-2
1.513667709E2,-6.455624010E-3,-1.094242930E-2,5.995642394E-3
1.514668383E2,-2.294898592E-2,2.021169849E-2,-9.886854328E-3
1.515669031E2,-2.417071536E-2,-1.094242930E-2,1.108720433E-3
1.516669781E2,5.150815938E-3,-1.460762043E-2,-1.334740547E-3
1.517670431E2,6.868080050E-2,-4.222911317E-3,9.049968794E-3
1.518671066E2,2.164417692E-2,2.509861998E-2,5.384777207E-3
1.519671727E2,2.707354724E-3,-3.612046130E-3,2.371073514E-2
1.520672412E2,2.164417692E-2,-4.820520803E-2,3.165198490E-2
1.521673091E2,8.747590473E-4,-3.612046130E-3,1.943467744E-2
1.522673744E2,-2.355985157E-2,5.319842324E-2,7.217372768E-3
1.523674514E2,-1.439687237E-2,2.754208259E-2,-7.238753606E-4
1.524675098E2,-1.684033312E-2,-6.055507343E-3,2.004554309E-2
1.525675755E2,1.485624351E-3,-2.010540850E-2,1.515862066E-2
1.526677275E2,1.614639163E-2,-1.949454285E-2,2.432160079E-2
1.527677838E2,8.816007525E-3,-4.222911317E-3,2.676505968E-2
1.528678495E2,2.469850332E-2,-9.720697999E-3,1.882381178E-2
1.529679167E2,2.286590822E-2,-6.055507343E-3,4.773912020E-3
1.530679874E2,5.150815938E-3,-4.222911317E-3,5.995642394E-3
1.531680617E2,8.816007525E-3,-3.354444355E-2,6.606507581E-3
1.532681185E2,-9.578366880E-4,-6.055507343E-3,1.576948725E-2
1.533681861E2,6.318301708E-2,-6.055507343E-3,2.981938794E-2
1.534682523E2,-4.012163263E-3,-7.277237717E-3,2.126727253E-2
1.535683170E2,-4.623028450E-3,-2.682492696E-2,7.217372768E-3
1.536683862E2,-9.509949945E-3,5.314527516E-5,-1.334740547E-3
1.537684531E2,-9.578366880E-4,6.772662979E-3,8.439103141E-3
1.538685204E2,-1.378600672E-2,-2.390315756E-3,1.271515992E-2
1.539685940E2,-2.905763872E-2,1.532477699E-2,1.108720433E-3
1.540686544E2,-2.722504176E-2,1.288131531E-2,-1.171945035E-2
1.541687271E2,9.426872246E-3,-3.049011528E-2,-1.538464148E-2
1.542687896E2,1.797898673E-2,6.640105275E-4,4.978551879E-4
1.543688591E2,-2.172725461E-2,1.410304569E-2,-4.389066715E-3
1.544689238E2,-6.455624010E-3,-4.222911317E-3,-7.238753606E-4
1.545689880E2,1.858985052E-2,-1.827281155E-2,-7.443393115E-3
1.546690562E2,3.508321196E-2,1.349218097E-2,1.088256482E-2
1.547691306E2,4.668965191E-2,8.605258539E-3,2.493246458E-2
1.548691916E2,-1.378600672E-2,1.165958494E-2,2.065640874E-2
1.549692605E2,-5.715744197E-2,6.640105275E-4,2.920852043E-2
1.550693264E2,-1.561860275E-2,-2.132713981E-2,3.348457813E-2
1.551693965E2,-3.401297610E-3,-1.705108024E-2,4.081496224E-2
1.552694605E2,4.539950285E-3,-1.033156365E-2,2.309986949E-2
1.553695355E2,1.736812107E-2,-2.926838771E-2,1.454775594E-2
1.554695946E2,1.553552505E-2,-3.001180943E-3,1.576948725E-2
1.555696650E2,7.594276685E-3,1.274875714E-3,2.432160079E-2
1.556697268E2,1.431379374E-2,1.885741018E-3,1.454775594E-2
1.557697948E2,3.569407761E-2,-2.071627229E-2,1.454775594E-2
1.558698634E2,2.530936897E-2,-2.010540850E-2,1.271515992E-2
1.559699299E2,-1.256427635E-2,7.994392887E-3,4.773912020E-3
1.560699980E2,2.042244747E-2,-1.168585150E-3,1.027169917E-2
1.561700645E2,-3.469714429E-4,-1.705108024E-2,9.660834447E-3
1.562701316E2,4.607878998E-2,3.107471392E-3,1.882381178E-2
1.563701999E2,-3.401297610E-3,3.120727278E-2,-6.221662741E-3
1.564702721E2,-6.143349409E-2,6.772662979E-3,-6.832527462E-3
1.565703310E2,-3.883148357E-2,-1.949454285E-2,1.821294799E-2
1.566704078E2,-5.233893171E-3,-6.666372530E-3,1.943467744E-2
1.567704675E2,3.929085098E-3,1.715737209E-2,4.978551879E-4
1.568705343E2,2.096489538E-3,3.107471392E-3,5.384777207E-3
1.569706015E2,-1.622946747E-2,-3.415530920E-2,-1.130100718E-4
1.570706673E2,1.125946827E-2,-2.926838771E-2,1.638035290E-2
1.571707439E2,-4.012163263E-3,2.815294638E-2,2.941316226E-3
1.572708052E2,-3.760975227E-2,3.670505807E-2,-8.665123954E-3
1.573708705E2,-2.905763872E-2,1.885741018E-3,-1.538464148E-2
1.574709394E2,1.485624351E-3,-9.720697999E-3,1.149342954E-2
1.575710014E2,1.492465939E-2,-2.560319565E-2,-1.334740547E-3
1.576710736E2,6.257214397E-2,-2.193800360E-2,1.088256482E-2
1.577711385E2,3.813754022E-2,2.204429358E-2,2.330451040E-3
1.578712057E2,-1.134254597E-2,-1.168585150E-3,1.821294799E-2
1.579712772E2,2.530936897E-2,-2.499233000E-2,6.606507581E-3
1.580713413E2,2.775282972E-2,-5.577199627E-4,7.217372768E-3
1.581714200E2,1.370292995E-2,-2.390315756E-3,1.271515992E-2
1.582714747E2,2.096489538E-3,-1.779450453E-3,1.760208048E-2
1.583715429E2,3.929085098E-3,-5.577199627E-4,2.615419589E-2
1.584716085E2,-1.568701933E-3,-3.612046130E-3,2.065640874E-2
1.585716731E2,2.096489538E-3,2.496606437E-3,1.088256482E-2
1.586717444E2,-1.317514107E-2,-4.833776504E-3,5.384777207E-3
1.587718089E2,-1.622946747E-2,-7.888102904E-3,1.210429519E-2
1.588718776E2,8.205141872E-3,1.885741018E-3,1.393689029E-2
1.589719516E2,4.180273041E-2,-5.577199627E-4,1.576948725E-2
1.590720118E2,1.981158182E-2,-1.216415968E-2,3.898236528E-2
1.591720791E2,2.286590822E-2,-6.055507343E-3,3.409544379E-2
1.592721459E2,-8.288219571E-3,-1.168585150E-3,2.187814005E-2
1.593722156E2,-1.928379387E-2,-8.498968557E-3,9.660834447E-3
1.594722809E2,-1.568701933E-3,1.227045059E-2,-3.778201528E-3
1.595723464E2,4.539950285E-3,6.772662979E-3,4.773912020E-3
1.596724146E2,3.929085098E-3,-1.338589005E-2,9.660834447E-3
1.597724804E2,-8.899085224E-3,-6.055507343E-3,3.552181413E-3
1.598725494E2,-1.378600672E-2,1.715737209E-2,1.088256482E-2
1.599726158E2,1.858985052E-2,1.654650643E-2,1.088256482E-2
1.600727381E2,-1.568701933E-3,-4.833776504E-3,2.330451040E-3
1.601728054E2,-2.355985157E-2,-3.171184659E-2,4.163046833E-3
1.602728727E2,8.205141872E-3,-3.612046130E-3,2.941316226E-3
1.603729397E2,2.286590822E-2,7.383528166E-3,8.439103141E-3
1.604730085E2,3.318219911E-3,-1.155329403E-2,8.439103141E-3
1.605730772E2,2.096489538E-3,-1.094242930E-2,-1.334740547E-3
1.606731377E2,1.614639163E-2,-2.071627229E-2,2.941316226E-3
1.607732089E2,1.858985052E-2,-1.779450453E-3,2.941316226E-3
1.608732750E2,-8.288219571E-3,6.640105275E-4,4.978551879E-4
1.609733415E2,-1.256427635E-2,-1.168585150E-3,-4.999931902E-3
1.610734085E2,8.747590473E-4,3.107471392E-3,4.163046833E-3
1.611734762E2,-1.500773709E-2,-1.168585150E-3,3.552181413E-3
1.612735438E2,-5.233893171E-3,5.314527516E-5,1.210429519E-2
1.613736106E2,-3.401297610E-3,3.107471392E-3,-1.945605734E-3
1.614736781E2,-2.790432423E-3,-1.277502440E-2,4.773912020E-3
1.615737474E2,1.492465939E-2,-2.390315756E-3,5.995642394E-3
1.616738152E2,5.279830471E-2,2.496606437E-3,1.149342954E-2
1.617738791E2,-5.233893171E-3,1.349218097E-2,1.088256482E-2
1.618739468E2,-2.722504176E-2,-1.033156365E-2,2.371073514E-2
1.619740131E2,-1.684033312E-2,-4.087482393E-2,1.719585620E-3
1.620740804E2,-1.317514107E-2,1.410304569E-2,1.088256482E-2
1.621741482E2,2.653109841E-2,3.242900595E-2,1.576948725E-2
1.622742198E2,-1.256427635E-2,4.329202231E-3,2.798679098E-2
1.623742815E2,3.929085098E-3,-2.377059869E-2,2.920852043E-2
1.624743488E2,1.248119865E-2,-1.216415968E-2,4.875621200E-2
1.625744132E2,4.180273041E-2,-2.377059869E-2,3.165198490E-2
1.626744846E2,3.202888370E-2,3.107471392E-3,2.981938794E-2
1.627745517E2,1.675725542E-2,3.718336811E-3,1.760208048E-2
1.628746174E2,1.858985052E-2,3.107471392E-3,2.187814005E-2
1.629746899E2,-1.256427635E-2,-1.705108024E-2,2.065640874E-2
1.630747514E2,8.747590473E-4,-2.682492696E-2,2.330451040E-3
1.631748187E2,2.775282972E-2,-1.460762043E-2,1.454775594E-2
1.632748855E2,1.736812107E-2,5.550932605E-3,1.515862066E-2
1.633749529E2,-4.310753942E-2,4.329202231E-3,4.163046833E-3
1.634750200E2,-2.355985157E-2,-2.071627229E-2,4.978551879E-4
1.635750843E2,-2.966850251E-2,-1.277502440E-2,-4.389066715E-3
1.636751517E2,6.257214397E-2,4.940067418E-3,1.699121669E-2
1.637752207E2,3.929085098E-3,2.021169849E-2,-1.782810129E-2
1.638752886E2,-7.677354384E-3,8.605258539E-3,-2.556471154E-3
1.639753559E2,-2.294898592E-2,-1.827281155E-2,-1.477377582E-2
1.640754277E2,5.150815938E-3,1.274875714E-3,5.384777207E-3
1.641754898E2,8.205141872E-3,-2.390315756E-3,1.210429519E-2
1.642755571E2,-6.998561323E-2,-4.222911317E-3,-1.660637185E-2
1.643756233E2,-2.600331046E-2,8.605258539E-3,5.995642394E-3
1.644756914E2,2.096489538E-3,5.550932605E-3,9.660834447E-3
1.645757558E2,1.858985052E-2,-3.001180943E-3,1.821294799E-2
1.646758266E2,-5.233893171E-3,-1.766194776E-2,1.699121669E-2
1.647758947E2,-1.378600672E-2,-2.390315756E-3,1.149342954E-2
1.648759592E2,1.370292995E-2,-1.168585150E-3,2.859765664E-2
1.649760264E2,8.747590473E-4,5.314527516E-5,2.981938794E-2
1.650760940E2,1.614639163E-2,-1.338589005E-2,1.638035290E-2
1.651761604E2,1.248119865E-2,1.274875714E-3,9.660834447E-3
1.652762292E2,-1.012081560E-2,5.550932605E-3,1.027169917E-2
1.653762952E2,3.141802177E-2,-3.110098280E-2,1.393689029E-2
1.654763629E2,5.218743905E-2,-1.399675570E-2,1.943467744E-2
1.655764272E2,4.485705495E-2,7.383528166E-3,2.004554309E-2
1.656764945E2,-2.539244667E-2,-3.001180943E-3,2.330451040E-3
1.657765745E2,-2.355985157E-2,-2.377059869E-2,-8.665123954E-3
1.658766309E2,-5.233893171E-3,6.772662979E-3,-1.945605734E-3
1.659766983E2,-2.179567004E-3,6.161797326E-3,4.978551879E-4
1.660767724E2,-3.089023381E-2,-8.498968557E-3,-1.171945035E-2
1.661768330E2,-2.722504176E-2,-1.644021645E-2,-1.334740547E-3
1.662769004E2,-2.844677307E-2,3.181813657E-2,1.393689029E-2
1.663769695E2,-4.371840134E-2,6.175053492E-2,-2.027156204E-2
1.664770333E2,-1.378600672E-2,-1.827281155E-2,-2.393675409E-2
1.665770982E2,-1.989465952E-2,-3.659877181E-2,-2.515848540E-2
1.666771654E2,1.187033392E-2,-1.779450453E-3,1.108720433E-3
1.667772411E2,7.417859137E-2,-3.476617485E-2,1.393689029E-2
1.668773020E2,8.205141872E-3,1.274875714E-3,-8.054258302E-3
1.669773699E2,-8.525723964E-2,-1.460762043E-2,-9.886854328E-3
1.670774365E2,-6.143349409E-2,9.216123261E-3,2.330451040E-3
1.671775106E2,-4.623028450E-3,3.609419614E-2,-3.778201528E-3
1.672775708E2,2.836369537E-2,2.326602489E-2,-1.416291017E-2
1.673776411E2,-6.455624010E-3,-1.033156365E-2,1.332602464E-2
1.674778617E2,-2.179567004E-3,-2.315973490E-2,3.592804074E-2
1.675779253E2,7.594276685E-3,-2.682492696E-2,3.714976832E-2
1.676779986E2,2.530936897E-2,4.940067418E-3,3.348457813E-2
1.677780768E2,1.309206430E-2,2.693121508E-2,2.737592533E-2
1.678781308E2,3.263975307E-2,-5.577199627E-4,2.432160079E-2
1.679781980E2,7.594276685E-3,3.718336811E-3,1.271515992E-2
1.680782688E2,-1.568701933E-3,9.826988913E-3,1.454775594E-2
1.681783349E2,8.816007525E-3,-2.438146435E-2,1.393689029E-2
1.682783986E2,2.347677201E-2,-9.720697999E-3,9.049968794E-3
1.683784662E2,-1.568701933E-3,-1.094242930E-2,1.882381178E-2
1.684785331E2,1.485624351E-3,-1.094242930E-2,1.149342954E-2
1.685786023E2,1.920071617E-2,6.161797326E-3,8.439103141E-3
1.686786665E2,-2.539244667E-2,-6.055507343E-3,7.828238420E-3
1.687787335E2,-1.256427635E-2,-1.094242930E-2,-6.221662741E-3
1.688788067E2,8.747590473E-4,-2.390315756E-3,-4.389066715E-3
1.689788684E2,-4.432927072E-2,1.043785457E-2,-2.149329334E-2
1.690789379E2,-1.684033312E-2,-1.521848608E-2,-1.721723750E-2
1.691790023E2,4.730051756E-2,-2.560319565E-2,-1.782810129E-2
1.692790701E2,-2.417071536E-2,-3.415530920E-2,1.515862066E-2
1.693791373E2,9.426872246E-3,-2.438146435E-2,-1.233031508E-2
1.694792032E2,9.426872246E-3,2.082256228E-2,4.163046833E-3
1.695792801E2,6.929166615E-2,-6.055507343E-3,1.576948725E-2
1.696793373E2,1.485624351E-3,-2.390315756E-3,2.941316226E-3
1.697794052E2,-2.294898592E-2,5.314527516E-5,2.065640874E-2
1.698794733E2,5.150815938E-3,-4.148568958E-2,1.515862066E-2
1.699795427E2,-1.806206256E-2,9.216123261E-3,4.773912020E-3
1.700796067E2,-1.568701933E-3,1.288131531E-2,2.615419589E-2
1.701796738E2,2.592023462E-2,-3.001180943E-3,8.439103141E-3
1.702797412E2,-5.844758358E-3,-1.094242930E-2,3.470630944E-2
1.703798088E2,3.202888370E-2,6.772662979E-3,4.814534262E-2
1.704798752E2,3.508321196E-2,-1.521848608E-2,3.592804074E-2
1.705799378E2,2.408763953E-2,-3.612046130E-3,2.004554309E-2
1.706800101E2,1.187033392E-2,-9.109833278E-3,2.737592533E-2
1.707800780E2,1.675725542E-2,-5.444642156E-3,1.882381178E-2
1.708801503E2,2.638937731E-4,-6.055507343E-3,1.149342954E-2
1.709802109E2,-7.677354384E-3,-1.779450453E-3,1.699121669E-2
1.710802779E2,-1.500773709E-2,-9.720697999E-3,5.995642394E-3
1.711803447E2,-9.578366880E-4,-4.833776504E-3,2.187814005E-2
1.712804130E2,1.431379374E-2,6.640105275E-4,1.271515992E-2
1.713804794E2,-4.371840134E-2,6.640105275E-4,1.393689029E-2
1.714805476E2,1.614639163E-2,-5.577199627E-4,2.941316226E-3
1.715806092E2,3.813754022E-2,-1.521848608E-2,2.941316226E-3
1.716806814E2,8.205141872E-3,8.605258539E-3,5.384777207E-3
1.717807470E2,-2.905763872E-2,-1.168585150E-3,8.439103141E-3
1.718808162E2,6.372546311E-3,-3.782049939E-2,-1.049771905E-2
1.719808886E2,-4.921618849E-2,3.718336811E-3,-2.454762161E-2
1.720809504E2,-5.233893171E-3,2.496606437E-3,-7.238753606E-4
1.721810163E2,-9.578366880E-4,-7.277237717E-3,7.828238420E-3
1.722810834E2,-2.790432423E-3,9.216123261E-3,4.163046833E-3
1.723811506E2,-1.317514107E-2,-7.888102904E-3,-1.843896694E-2
1.724812185E2,-1.073168125E-2,1.165958494E-2,1.108720433E-3
1.725812800E2,1.309206430E-2,1.288131531E-2,1.027169917E-2
1.726813586E2,-5.844758358E-3,6.640105275E-4,-5.610797554E-3
1.727814253E2,1.492465939E-2,-2.254886739E-2,-3.167336341E-3
1.728814868E2,4.485705495E-2,-9.109833278E-3,-9.886854328E-3
1.729815560E2,3.874840587E-2,-1.168585150E-3,2.330451040E-3
1.730816248E2,-1.317514107E-2,1.654650643E-2,-1.049771905E-2
1.731816873E2,1.675725542E-2,-4.270742089E-2,1.454775594E-2
1.732817547E2,-4.012163263E-3,3.718336811E-3,4.163046833E-3
1.733818198E2,-1.439687237E-2,9.216123261E-3,2.920852043E-2
1.734818905E2,-1.622946747E-2,2.021169849E-2,2.493246458E-2
1.735819559E2,-3.822061419E-2,6.772662979E-3,3.043025173E-2
1.736820309E2,8.816007525E-3,-9.720697999E-3,2.798679098E-2
1.737820899E2,-1.568701933E-3,-6.666372530E-3,3.653890640E-2
1.738821707E2,1.981158182E-2,-7.277237717E-3,2.859765664E-2
1.739822248E2,2.707354724E-3,1.410304569E-2,2.798679098E-2
1.740822915E2,-1.256427635E-2,1.776823774E-2,2.737592533E-2
1.741823586E2,3.318219911E-3,5.314527516E-5,1.760208048E-2
1.742824257E2,2.707354724E-3,-5.444642156E-3,1.271515992E-2
1.743824930E2,-5.233893171E-3,-1.521848608E-2,1.576948725E-2
1.744825605E2,5.150815938E-3,-1.094242930E-2,2.126727253E-2
1.745826274E2,5.761681125E-3,-1.155329403E-2,9.049968794E-3
1.746827050E2,-3.401297610E-3,9.826988913E-3,2.941316226E-3
1.747828732E2,1.492465939E-2,-6.055507343E-3,2.330451040E-3
1.748829410E2,1.553552505E-2,-1.582935080E-2,1.332602464E-2
1.749830127E2,2.347677201E-2,-1.460762043E-2,4.163046833E-3
1.750830758E2,2.714196406E-2,-2.499233000E-2,1.719585620E-3
1.751831499E2,3.019629046E-2,-1.521848608E-2,8.439103141E-3
1.752832151E2,3.325061873E-2,1.410304569E-2,2.330451040E-3
1.753832770E2,-1.928379387E-2,-4.833776504E-3,4.773912020E-3
1.754833447E2,6.372546311E-3,-3.476617485E-2,-1.334740547E-3
1.755834066E2,-2.294898592E-2,9.826988913E-3,-1.130100718E-4
1.756834785E2,-6.455624010E-3,6.640105275E-4,1.210429519E-2
1.757835459E2,-1.500773709E-2,6.640105275E-4,1.332602464E-2
1.758836132E2,-1.989465952E-2,-7.888102904E-3,2.371073514E-2
1.759836805E2,-2.722504176E-2,-1.779450453E-3,2.330451040E-3
1.760837461E2,-1.622946747E-2,-6.666372530E-3,-1.945605734E-3
1.761838138E2,3.929085098E-3,-3.612046130E-3,-4.999931902E-3
1.762838810E2,-1.561860275E-2,6.161797326E-3,-1.538464148E-2
1.763839489E2,4.539950285E-3,3.718336811E-3,-2.271502465E-2
1.764840155E2,-4.012163263E-3,-4.222911317E-3,-1.538464148E-2
1.765840778E2,1.492465939E-2,-9.109833278E-3,-4.389066715E-3
1.766841488E2,1.064860262E-2,-2.193800360E-2,-5.610797554E-3
1.767842174E2,1.553552505E-2,-5.577199627E-4,4.978551879E-4
1.768842837E2,2.042244747E-2,5.550932605E-3,2.941316226E-3
1.769843531E2,2.096489538E-3,-4.833776504E-3,5.384777207E-3
1.770844180E2,1.370292995E-2,-1.033156365E-2,2.941316226E-3
1.771844911E2,1.248119865E-2,5.314527516E-5,9.049968794E-3
1.772845578E2,1.309206430E-2,-1.094242930E-2,1.271515992E-2
1.773846199E2,9.426872246E-3,6.640105275E-4,1.699121669E-2
1.774846897E2,1.614639163E-2,7.994392887E-3,5.995642394E-3
1.775847484E2,4.539950285E-3,-1.338589005E-2,1.821294799E-2
1.776848204E2,-3.469714429E-4,-1.888367720E-2,1.454775594E-2
1.777848878E2,6.745906919E-2,-1.888367720E-2,1.210429519E-2
1.778849550E2,3.630494326E-2,-5.577199627E-4,2.187814005E-2
1.779850216E2,-1.867293008E-2,1.288131531E-2,1.760208048E-2
1.780850893E2,-2.600331046E-2,-1.705108024E-2,1.882381178E-2
1.781851561E2,-3.089023381E-2,1.960083470E-2,2.615419589E-2
1.782852240E2,-1.622946747E-2,1.165958494E-2,3.104111739E-2
1.783852913E2,-2.233812027E-2,6.161797326E-3,4.020409659E-2
1.784853579E2,2.225504257E-2,-5.444642156E-3,6.280610710E-2
1.785854205E2,3.080715612E-2,-2.071627229E-2,7.502341270E-2
1.786854916E2,5.157657713E-2,-1.155329403E-2,5.975178629E-2
1.787855592E2,3.202888370E-2,1.274875714E-3,3.043025173E-2
1.788856325E2,1.675725542E-2,1.043785457E-2,2.737592533E-2
1.789856936E2,2.347677201E-2,-7.888102904E-3,2.554333024E-2
1.790857652E2,4.852224886E-2,-3.354444355E-2,1.638035290E-2
1.791858291E2,3.691580892E-2,-1.766194776E-2,1.149342954E-2
1.792858947E2,-1.928379387E-2,-4.833776504E-3,1.719585620E-3
1.793859610E2,-1.928379387E-2,-2.987925150E-2,-7.238753606E-4
1.794860292E2,-4.310753942E-2,1.960083470E-2,-1.110858470E-2
1.795860920E2,-9.578366880E-4,4.329202231E-3,-1.110858470E-2
1.796861654E2,-4.623028450E-3,-2.193800360E-2,-2.332589030E-2
1.797862356E2,1.431379374E-2,7.994392887E-3,-1.416291017E-2
1.798862969E2,8.747590473E-4,2.021169849E-2,-3.126713634E-2
1.799863648E2,-3.027937002E-2,6.161797326E-3,-1.904983260E-2
1.800864330E2,-2.179567004E-3,-1.277502440E-2,-2.271502465E-2
1.801864996E2,-2.790432423E-3,-2.743579075E-2,-4.999931902E-3
1.802865691E2,-1.500773709E-2,-1.399675570E-2,1.108720433E-3
1.803866340E2,-1.684033312E-2,-4.222911317E-3,2.330451040E-3
1.804867002E2,-1.439687237E-2,3.365073353E-2,-1.049771905E-2
1.805867652E2,-8.288219571E-3,1.227045059E-2,-9.275988676E-3
1.806868334E2,-3.333369270E-2,-1.399675570E-2,4.978551879E-4
1.807869075E2,2.347677201E-2,-1.216415968E-2,1.515862066E-2
1.808869728E2,3.263975307E-2,1.274875714E-3,3.165198490E-2
1.809870362E2,3.080715612E-2,-1.168585150E-3,1.088256482E-2
1.810871036E2,-7.066489197E-3,-5.577199627E-4,1.332602464E-2
1.811871714E2,-2.417071536E-2,-1.949454285E-2,2.126727253E-2
1.812872379E2,-2.111639082E-2,-5.444642156E-3,2.126727253E-2
1.813873098E2,1.858985052E-2,1.349218097E-2,3.409544379E-2
1.814873711E2,6.372546311E-3,6.772662979E-3,3.287371621E-2
1.815874346E2,-3.469714429E-4,6.161797326E-3,2.065640874E-2
1.816875134E2,-1.134254597E-2,4.940067418E-3,2.126727253E-2
1.817875722E2,5.150815938E-3,-1.766194776E-2,2.981938794E-2
1.818876392E2,1.125946827E-2,-1.582935080E-2,2.309986949E-2
1.819877077E2,3.691580892E-2,-2.071627229E-2,3.043025173E-2
1.820877795E2,1.981158182E-2,-1.033156365E-2,2.309986949E-2
1.821878411E2,1.248119865E-2,3.718336811E-3,7.828238420E-3
1.822880197E2,1.370292995E-2,1.165958494E-2,1.760208048E-2
1.823880867E2,1.614639163E-2,-5.444642156E-3,2.004554309E-2
1.824881537E2,2.836369537E-2,-2.987925150E-2,8.439103141E-3
1.825882169E2,1.248119865E-2,-1.216415968E-2,4.163046833E-3
1.826882888E2,8.205141872E-3,1.043785457E-2,1.108720433E-3
1.827883560E2,-1.317514107E-2,-1.399675570E-2,7.217372768E-3
1.828884269E2,-1.317514107E-2,-2.132713981E-2,9.049968794E-3
1.829884974E2,3.318219911E-3,-2.071627229E-2,1.699121669E-2
1.830885569E2,-2.790432423E-3,4.281371459E-2,-6.221662741E-3
1.831886241E2,-1.134254597E-2,7.702216506E-2,-1.334740547E-3
1.832886913E2,-4.860532656E-2,-2.499233000E-2,-2.821280994E-2
1.833887589E2,-3.883148357E-2,-1.033156365E-2,-1.049771905E-2
1.834888255E2,8.205141872E-3,-1.399675570E-2,-3.778201528E-3
1.835888885E2,1.614639163E-2,-2.621405944E-2,-1.110858470E-2
1.836889658E2,-1.073168125E-2,5.314527516E-5,2.330451040E-3
1.837890288E2,6.745906919E-2,4.329202231E-3,1.393689029E-2
1.838890995E2,2.836369537E-2,6.640105275E-4,2.676505968E-2
1.839891611E2,2.347677201E-2,-9.109833278E-3,2.187814005E-2
1.840892280E2,-5.593570694E-2,-2.071627229E-2,1.760208048E-2
1.841892993E2,-4.494013637E-2,-1.779450453E-3,6.606507581E-3
1.842893622E2,1.125946827E-2,1.043785457E-2,1.149342954E-2
1.843894290E2,-2.179567004E-3,3.718336811E-3,6.606507581E-3
1.844894965E2,-7.677354384E-3,-8.498968557E-3,5.384777207E-3
1.845895650E2,-1.134254597E-2,1.288131531E-2,9.660834447E-3
1.846896306E2,2.469850332E-2,4.329202231E-3,2.126727253E-2
1.847896986E2,3.997013345E-2,-2.865752019E-2,1.943467744E-2
1.848897650E2,3.691580892E-2,-4.148568958E-2,2.676505968E-2
1.849898371E2,4.119186476E-2,-2.499233000E-2,3.043025173E-2
1.850898992E2,1.797898673E-2,1.532477699E-2,1.576948725E-2
1.851899669E2,2.707354724E-3,-2.377059869E-2,1.393689029E-2
1.852900331E2,-2.111639082E-2,-1.168585150E-3,2.004554309E-2
1.853900996E2,-2.790432423E-3,1.837910339E-2,2.859765664E-2
1.854901673E2,-2.722504176E-2,-1.168585150E-3,1.719585620E-3
1.855902298E2,-1.378600672E-2,6.640105275E-4,-1.110858470E-2
1.856903037E2,-3.401297610E-3,1.274875714E-3,-3.167336341E-3
1.857903689E2,-4.188580811E-2,1.274875714E-3,-4.999931902E-3
1.858904364E2,-1.568701933E-3,-2.390315756E-3,5.384777207E-3
1.859905028E2,-3.469714429E-4,-3.001180943E-3,1.393689029E-2
1.860905705E2,-1.134254597E-2,6.640105275E-4,7.828238420E-3
1.861906365E2,-3.401297610E-3,1.274875714E-3,7.217372768E-3
1.862907106E2,8.205141872E-3,-1.338589005E-2,1.393689029E-2
1.863907733E2,4.119186476E-2,-1.582935080E-2,5.384777207E-3
1.864908401E2,-8.899085224E-3,2.387689054E-2,-7.238753606E-4
1.865909014E2,-3.577715531E-2,5.314527516E-5,2.065640874E-2
1.866909737E2,-5.410310999E-2,-2.132713981E-2,8.439103141E-3
1.867910400E2,-1.073168125E-2,-1.827281155E-2,1.332602464E-2
1.868911083E2,-4.012163263E-3,1.837910339E-2,4.773912020E-3
1.869911750E2,-1.378600672E-2,1.654650643E-2,-4.389066715E-3
1.870912412E2,-9.509949945E-3,1.885741018E-3,-7.443393115E-3
1.871913088E2,2.469850332E-2,-5.577199627E-4,-1.110858470E-2
1.872913767E2,-2.294898592E-2,-3.612046130E-3,-6.832527462E-3
1.873914454E2,-5.844758358E-3,-3.001180943E-3,-4.999931902E-3
1.874915083E2,2.897455916E-2,1.885741018E-3,3.552181413E-3
1.875915720E2,9.426872246E-3,6.161797326E-3,2.941316226E-3
1.876916431E2,8.816007525E-3,-1.705108024E-2,4.163046833E-3
1.877917121E2,-2.790432423E-3,-8.498968557E-3,-1.110858470E-2
1.878917790E2,2.653109841E-2,5.314527516E-5,2.493246458E-2
1.879918456E2,5.157657713E-2,1.349218097E-2,4.163046833E-3
1.880919134E2,2.707354724E-3,-9.109833278E-3,1.393689029E-2
1.881919840E2,-1.256427635E-2,-3.171184659E-2,9.049968794E-3
1.882920478E2,-5.233893171E-3,-1.399675570E-2,2.004554309E-2
1.883921180E2,-2.790432423E-3,3.718336811E-3,4.978551879E-4
1.884921836E2,-4.623028450E-3,7.994392887E-3,4.163046833E-3
1.885922422E2,-1.134254597E-2,1.227045059E-2,5.995642394E-3
1.886923163E2,-2.417071536E-2,1.885741018E-3,1.821294799E-2
1.887923861E2,-1.378600672E-2,-1.168585150E-3,3.226284683E-2
1.888924497E2,-8.288219571E-3,-2.438146435E-2,2.126727253E-2
1.889925168E2,-1.317514107E-2,5.550932605E-3,1.821294799E-2
1.890925852E2,-8.899085224E-3,7.383528166E-3,1.699121669E-2
1.891926517E2,-3.401297610E-3,1.274875714E-3,9.049968794E-3
1.892927184E2,5.150815938E-3,-6.055507343E-3,3.043025173E-2
1.893927885E2,-3.401297610E-3,-3.612046130E-3,1.454775594E-2
1.894928547E2,2.042244747E-2,-6.666372530E-3,2.065640874E-2
1.895930289E2,3.569407761E-2,-9.720697999E-3,2.432160079E-2
1.896930992E2,1.981158182E-2,-2.438146435E-2,1.699121669E-2
1.897931690E2,3.325061873E-2,-1.216415968E-2,1.088256482E-2
1.898932406E2,2.592023462E-2,4.329202231E-3,2.126727253E-2
1.899933032E2,3.508321196E-2,5.314527516E-5,1.149342954E-2
1.900933699E2,6.379388273E-2,-3.904222697E-2,3.043025173E-2
1.901934423E2,2.164417692E-2,-7.277237717E-3,1.760208048E-2
1.902935044E2,-3.211196512E-2,-9.720697999E-3,1.108720433E-3
1.903935713E2,-1.317514107E-2,-2.390315756E-3,4.978551879E-4
1.904936395E2,-8.899085224E-3,3.107471392E-3,2.330451040E-3
1.905937023E2,-1.745119877E-2,6.640105275E-4,-1.334740547E-3
1.906937811E2,-8.288219571E-3,-1.399675570E-2,7.217372768E-3
1.907938429E2,8.747590473E-4,-1.779450453E-3,9.660834447E-3
1.908939077E2,2.286590822E-2,-5.444642156E-3,1.576948725E-2
1.909939823E2,1.431379374E-2,7.383528166E-3,1.149342954E-2
1.910940413E2,2.530936897E-2,-1.277502440E-2,1.576948725E-2
1.911941086E2,-2.179567004E-3,-1.168585150E-3,2.941316226E-3
1.912941829E2,8.205141872E-3,-3.612046130E-3,2.941316226E-3
1.913942431E2,-9.509949945E-3,-3.001180943E-3,-1.334740547E-3
1.914943099E2,4.539950285E-3,-4.833776504E-3,1.638035290E-2
1.915943712E2,1.485624351E-3,-7.277237717E-3,-7.238753606E-4
1.916944429E2,-8.899085224E-3,-9.109833278E-3,4.773912020E-3
1.917945168E2,1.248119865E-2,-3.001180943E-3,1.149342954E-2
1.918945830E2,3.929085098E-3,-6.055507343E-3,5.995642394E-3
1.919946471E2,1.920071617E-2,-5.577199627E-4,8.439103141E-3
1.920947120E2,2.897455916E-2,-7.888102904E-3,9.049968794E-3
1.921947794E2,1.431379374E-2,-1.094242930E-2,8.439103141E-3
1.922948484E2,5.150815938E-3,-3.612046130E-3,5.384777207E-3
1.923949152E2,1.125946827E-2,-3.612046130E-3,7.828238420E-3
1.924949809E2,4.539950285E-3,-6.666372530E-3,2.941316226E-3
1.925950489E2,1.248119865E-2,-1.277502440E-2,2.941316226E-3
1.926951146E2,-4.432927072E-2,1.274875714E-3,6.606507581E-3
1.927951820E2,-3.394456208E-2,4.329202231E-3,6.606507581E-3
1.928952489E2,-8.899085224E-3,-5.577199627E-4,1.088256482E-2
1.929953162E2,-8.899085224E-3,1.593564078E-2,1.393689029E-2
1.930953896E2,-1.317514107E-2,7.994392887E-3,8.439103141E-3
1.931954515E2,-1.806206256E-2,-9.109833278E-3,-3.778201528E-3
1.932955221E2,8.816007525E-3,-1.155329403E-2,4.163046833E-3
1.933955851E2,-2.539244667E-2,7.994392887E-3,5.384777207E-3
1.934956522E2,7.594276685E-3,4.940067418E-3,1.271515992E-2
1.935957150E2,-2.966850251E-2,4.329202231E-3,-8.665123954E-3
1.936957844E2,-1.989465952E-2,-5.577199627E-4,-4.999931902E-3
1.937958537E2,1.553552505E-2,-5.444642156E-3,5.995642394E-3
1.938959207E2,-1.378600672E-2,-1.168585150E-3,1.027169917E-2
1.939959961E2,-7.066489197E-3,-2.390315756E-3,-6.221662741E-3
1.940960661E2,5.150815938E-3,-3.001180943E-3,3.552181413E-3
1.941961220E2,1.675725542E-2,-9.109833278E-3,1.088256482E-2
1.942961895E2,2.775282972E-2,4.329202231E-3,1.088256482E-2
1.943962559E2,4.913311452E-2,3.107471392E-3,9.049968794E-3
1.944963238E2,2.042244747E-2,7.994392887E-3,2.798679098E-2
1.945963890E2,-8.288219571E-3,-1.766194776E-2,2.065640874E-2
1.946964588E2,-3.394456208E-2,-2.071627229E-2,2.798679098E-2
1.947965248E2,-4.188580811E-2,-3.612046130E-3,1.454775594E-2
1.948965921E2,-1.195341069E-2,1.349218097E-2,2.309986949E-2
1.949966590E2,-8.288219571E-3,1.898996718E-2,2.615419589E-2
1.950967276E2,-1.867293008E-2,-9.720697999E-3,2.371073514E-2
1.951967948E2,8.205141872E-3,-1.521848608E-2,1.638035290E-2
1.952968602E2,1.858985052E-2,-5.577199627E-4,1.699121669E-2
1.953969271E2,2.096489538E-3,9.216123261E-3,4.773912020E-3
1.954969950E2,-1.073168125E-2,-1.399675570E-2,9.660834447E-3
1.955970568E2,-4.623028450E-3,-3.049011528E-2,1.271515992E-2
1.956971277E2,5.768522620E-2,-6.055507343E-3,1.882381178E-2
1.957971960E2,2.042244747E-2,1.837910339E-2,2.330451040E-3
1.958972635E2,-2.539244667E-2,-6.055507343E-3,-4.389066715E-3
1.959973302E2,-3.822061419E-2,-2.743579075E-2,-1.334740547E-3
1.960973972E2,-8.899085224E-3,3.718336811E-3,3.552181413E-3
1.961974646E2,1.431379374E-2,5.550932605E-3,7.217372768E-3
1.962975395E2,3.318219911E-3,-1.521848608E-2,-1.110858470E-2
1.963975998E2,1.309206430E-2,-3.232271224E-2,-6.832527462E-3
1.964976666E2,1.187033392E-2,7.994392887E-3,1.719585620E-3
1.965977304E2,3.929085098E-3,4.647890478E-2,-1.782810129E-2
1.966978006E2,1.125946827E-2,-4.833776504E-3,-2.088242956E-2
1.967978672E2,3.929085098E-3,-1.582935080E-2,-3.554319218E-2
1.968979340E2,-1.568701933E-3,-1.582935080E-2,4.978551879E-4
1.969981151E2,1.614639163E-2,-3.001180943E-3,5.995642394E-3
1.970981820E2,4.791138321E-2,-1.033156365E-2,1.515862066E-2
1.971982490E2,3.080715612E-2,-1.779450453E-3,2.330451040E-3
1.972983165E2,-3.272282705E-2,-2.682492696E-2,5.384777207E-3
1.973983833E2,-4.310753942E-2,-5.675732344E-2,1.882381178E-2
1.974984506E2,-1.073168125E-2,3.242900595E-2,-2.088242956E-2
1.975985168E2,1.797898673E-2,3.059640713E-2,5.995642394E-3
1.976985837E2,-3.401297610E-3,6.640105275E-4,2.248900384E-2
1.977986516E2,1.485624351E-3,-1.094242930E-2,2.554333024E-2
1.978987190E2,1.187033392E-2,-6.055507343E-3,1.576948725E-2
1.979987862E2,2.286590822E-2,-2.743579075E-2,2.065640874E-2
1.980988532E2,6.562647223E-2,-1.582935080E-2,4.631274939E-2
1.981989204E2,2.469850332E-2,-5.577199627E-4,3.837150335E-2
1.982989875E2,-6.876387447E-2,7.383528166E-3,1.760208048E-2
1.983990550E2,-2.172725461E-2,3.107471392E-3,1.271515992E-2
1.984991217E2,-8.288219571E-3,1.227045059E-2,1.393689029E-2
1.985991842E2,9.426872246E-3,7.994392887E-3,1.699121669E-2
1.986992552E2,5.150815938E-3,-1.949454285E-2,1.088256482E-2
1.987993268E2,1.370292995E-2,-1.277502440E-2,5.384777207E-3
1.988993900E2,1.920071617E-2,6.161797326E-3,1.719585620E-3
1.989994575E2,-8.288219571E-3,3.718336811E-3,2.330451040E-3
1.990995244E2,9.426872246E-3,-1.033156365E-2,-1.416291017E-2
