"Time (s)","Linear Acceleration x (m/s^2)","Linear Acceleration y (m/s^2)","Linear Acceleration z (m/s^2)"
1.700759100E-2,-8.218864202E-1,1.320295334E0,3.992866516E0
1.170817260E-1,-6.853706837E-1,1.002265930E0,3.364880800E0
2.171525910E-1,-4.316973686E-1,2.790651321E-1,1.153634906E0
3.172181890E-1,-1.669150591E-1,1.864757538E-1,7.203024626E-1
4.172844870E-1,-6.321066618E-2,1.016168594E-1,3.385356069E-1
5.173521850E-1,-1.104598641E-1,1.106567383E-1,3.725264668E-1
6.174198160E-1,-8.592027426E-2,9.780120850E-2,2.681651711E-1
7.174884470E-1,-5.709624290E-2,-4.598617554E-3,-4.521548748E-3
8.175553450E-1,-4.075998068E-2,1.532688141E-1,-2.828186750E-2
9.176212100E-1,-2.996063232E-2,2.818298340E-2,1.260977983E-1
1.017685274E0,-1.265491843E-1,9.679603577E-2,1.618803144E-1
1.117751472E0,-6.297469139E-2,1.266355515E-1,-2.833694220E-2
1.217818270E0,-7.045847178E-2,1.002578735E-1,6.700295210E-2
1.317884901E0,-1.202228069E-1,8.375167847E-2,6.164690852E-2
1.417952899E0,-1.666411757E-1,7.482910156E-2,-2.514144778E-2
1.518021730E0,-7.039362192E-2,4.254341125E-2,1.510431170E-1
1.618091493E0,-3.203129768E-2,8.754920959E-2,9.402334690E-3
1.718158024E0,-7.601547241E-2,1.114263535E-1,5.856218934E-2
1.818224988E0,-1.170699596E-1,7.030391693E-2,7.439845800E-2
1.918292318E0,-1.685912609E-1,8.642387390E-2,3.438246250E-2
2.018359683E0,-4.600185156E-2,9.552764893E-2,7.667124271E-2
2.118426481E0,-3.669327497E-2,8.096694946E-2,4.129236937E-2
2.218492845E0,-9.957534075E-2,7.562446594E-2,1.258287430E-1
2.318560043E0,-8.964425325E-2,6.569576263E-2,1.548901200E-2
2.418627607E0,-1.230620146E-1,7.525730133E-2,1.814029962E-1
2.518701405E0,-6.772768497E-2,8.822154999E-2,3.468275070E-2
2.618768604E0,-1.508229971E-2,1.186656952E-1,-6.185659766E-2
2.718835602E0,-1.109426022E-1,6.657505035E-2,1.315045059E-1
2.818896633E0,-9.627747536E-2,6.210517883E-2,6.485810876E-2
2.918963798E0,-8.473652601E-2,8.677291870E-2,1.041668653E-2
3.019030996E0,-7.876807451E-2,9.977245331E-2,-6.010091305E-2
3.119097861E0,-2.269560099E-2,1.010656357E-1,2.652981877E-2
3.219169692E0,-8.198398352E-2,8.016109467E-2,3.293728828E-2
3.319236690E0,-1.652339101E-1,8.467578888E-2,3.125771880E-2
3.419304488E0,-5.519372225E-2,1.084775925E-1,-3.009024262E-2
3.519366852E0,-3.209781647E-2,2.301120758E-2,-4.484137893E-2
3.619434150E0,-5.366981030E-2,6.468963623E-2,5.253016949E-3
3.719500581E0,-9.769988060E-2,1.324081421E-1,-7.978478074E-2
3.819567945E0,-1.141622066E-1,8.642387390E-2,6.846511364E-2
3.919635010E0,-1.177340150E-1,1.003885269E-1,2.430269122E-2
4.019702142E0,-6.455522776E-2,5.799198151E-2,-2.797862887E-2
4.119769073E0,-1.162126064E-1,8.314037323E-2,7.700462639E-2
4.219835538E0,-3.893053532E-2,1.163940430E-1,-6.292811036E-2
4.321553636E0,-5.323374271E-2,8.268642426E-2,2.877777815E-2
4.421620835E0,-1.193497777E-1,8.969879150E-2,6.302626431E-2
4.521688365E0,-1.555353403E-1,9.360885620E-2,9.687721729E-3
4.621755863E0,-6.809234619E-2,5.894660950E-2,4.717126489E-2
4.721822861E0,-1.160194278E-1,1.115446091E-1,4.386597872E-2
4.821890359E0,-2.769470215E-2,3.569698334E-2,1.017213464E-1
4.921957491E0,-4.110848904E-2,5.187225342E-2,-7.289457321E-2
5.022024755E0,-8.500099182E-2,1.016445160E-1,5.064770579E-2
5.122091787E0,-9.829843044E-2,7.651805878E-2,4.691630602E-3
5.222158219E0,-1.823341846E-2,7.701683044E-2,-1.876491308E-2
5.322225318E0,-1.315058470E-1,7.171058655E-2,7.783770561E-2
5.422292517E0,-2.120411396E-2,7.405853271E-2,-1.384571195E-2
5.522360248E0,-5.700588226E-2,8.219242096E-2,3.767749667E-2
5.622427346E0,-1.822917461E-1,1.017942429E-1,-5.524179339E-2
5.722494344E0,-3.377950191E-2,7.615375519E-2,5.844005942E-2
5.822561508E0,-4.858720303E-2,9.951114655E-2,-2.499908209E-2
5.922628706E0,-2.555930614E-2,2.203941345E-2,4.267582297E-2
6.022695971E0,-3.688967228E-2,8.761215210E-2,7.471817732E-2
6.122763036E0,-6.944406033E-2,7.751750946E-2,-9.061169624E-2
6.222829335E0,-6.814157963E-2,4.070281982E-2,4.994243383E-2
6.322899700E0,-5.127620697E-2,8.261394501E-2,-4.373592138E-2
6.422966964E0,-1.126989126E-1,7.714557648E-2,-6.069874763E-2
6.523035662E0,-2.055048943E-3,4.941463470E-2,2.791339159E-2
6.623099527E0,-8.249223232E-2,1.945114136E-2,-8.990031481E-2
6.723166659E0,-1.088762283E-2,3.816127777E-2,4.559725523E-2
6.823233091E0,-5.249965191E-2,8.476352692E-2,-2.554023266E-2
6.923300222E0,-5.101859570E-2,8.448219299E-2,-3.915190697E-3
7.023367387E0,-6.466746330E-2,8.662986755E-2,2.374708652E-3
7.123434219E0,-1.363543272E-1,1.867294312E-2,-5.066341162E-2
7.223500483E0,-7.445240021E-2,-2.145767212E-4,1.278104782E-1
7.323567615E0,3.491640091E-4,9.997558594E-2,-1.782509089E-1
7.423634980E0,-1.204578876E-1,7.278537750E-2,-3.624618053E-3
7.523703011E0,1.042829752E-1,1.115026474E-1,-1.766550541E-1
7.623770143E0,-5.231857300E-2,5.492973328E-2,-1.984334588E-1
7.723837475E0,5.235576630E-2,-2.150726318E-2,-6.874567270E-2
7.823904673E0,-1.126910448E-1,8.021068573E-2,-2.053773403E-2
7.923971838E0,-2.976059914E-2,3.034496307E-2,1.933538914E-2
8.024038669E0,8.806347847E-3,1.077909470E-1,-1.236683726E-1
8.124105801E0,-1.047289371E-1,7.690143585E-2,1.206576824E-2
8.224172233E0,-9.442281723E-2,1.876640320E-2,2.601408958E-2
8.324239464E0,-6.407320499E-2,6.413745880E-2,-7.635056973E-3
8.424306596E0,-5.772244930E-2,9.295082092E-2,9.675765038E-2
8.524374327E0,9.948885441E-2,1.904010773E-2,1.358801126E-2
8.624441525E0,8.534109592E-2,1.528167725E-2,-3.667944074E-1
8.724508623E0,-2.503249645E-1,3.088331223E-1,3.264771700E-1
8.824575654E0,4.999327660E-1,-2.414684296E-1,-8.605960011E-2
8.924642719E0,1.041622162E-1,1.872634888E-2,-6.589639187E-2
9.024709884E0,-7.909250259E-2,7.800102234E-2,-1.950132847E-2
9.124777181E0,-1.099160910E-1,8.175182343E-2,9.959864616E-2
9.224843712E0,-3.403222561E-2,1.172466278E-1,6.083428860E-3
9.324910844E0,-1.011543274E-1,1.086788177E-1,-2.218842506E-3
9.424977942E0,-5.358064175E-2,7.426548004E-2,8.174628019E-3
9.525045774E0,-1.024963856E-1,8.038234711E-2,2.785685658E-2
9.625112839E0,-1.267194748E-4,7.719612122E-2,6.431722641E-2
9.725180037E0,-4.323089123E-2,7.022190094E-2,-1.288053393E-2
9.825247135E0,-1.053308249E-1,5.531883240E-2,6.458717585E-2
9.925314366E0,-1.078808308E-1,7.157039642E-2,1.084008813E-2
1.002538150E1,-9.921002388E-2,6.666564941E-2,-1.613888144E-2
1.012544870E1,-1.372193098E-1,8.735847473E-2,7.197380066E-3
1.022551483E1,-2.531754971E-2,4.111766815E-2,-8.037301898E-2
1.032558192E1,-2.246892452E-2,8.336067200E-3,-1.141154766E-2
1.042564862E1,-1.559550762E-1,1.000919342E-1,-2.318483591E-2
1.052571669E1,4.030823708E-3,4.308986664E-2,1.378821135E-1
1.062578459E1,-1.192375422E-1,4.743766785E-2,-1.128389537E-1
1.072585202E1,-1.094979048E-1,1.036148071E-1,1.489633322E-2
1.082591925E1,-6.694090366E-2,1.118659973E-1,1.087903380E-1
1.092598555E1,-6.313443184E-2,7.274532318E-2,1.407769173E-1
1.102605281E1,-7.056939602E-2,4.517555237E-2,3.230753541E-2
1.112612064E1,-1.626111269E-1,4.875946045E-2,6.960690022E-3
1.122618721E1,-2.845621109E-2,5.660247803E-2,1.862013489E-1
1.132625424E1,8.175373077E-4,1.144514084E-1,-4.788795114E-2
1.142632060E1,-2.290393114E-1,1.165342331E-1,6.224064529E-2
1.152638910E1,-5.877721310E-2,8.265590668E-2,1.426461041E-1
1.162645637E1,-7.889389992E-2,1.036243439E-1,-1.081349254E-1
1.172657027E1,-4.150569439E-2,1.008863449E-1,5.716858804E-2
1.182663744E1,-4.998278618E-2,4.388141632E-2,5.361531675E-2
1.192670447E1,-1.417111158E-1,7.633113861E-2,1.012511551E-1
1.202677147E1,-2.995431423E-2,6.313419342E-2,-2.730500698E-2
1.212683790E1,-1.192580462E-1,7.167530060E-2,-7.008309662E-2
1.222690447E1,-5.234229565E-2,4.874706268E-2,1.485463381E-1
1.232697163E1,-1.081665754E-1,9.840869904E-2,-3.156882524E-2
1.242703876E1,-1.100590229E-1,4.362010956E-2,7.664158940E-2
1.252710653E1,-9.392869473E-2,6.043148041E-2,-4.838919640E-2
1.262717366E1,-8.115983009E-2,6.726455688E-2,-1.942455769E-3
1.272724079E1,-6.932234764E-2,8.820915222E-2,5.986392498E-4
1.282730789E1,-1.100969315E-1,9.428787231E-2,-1.304756701E-1
1.292737502E1,-1.225687861E-1,5.694484711E-2,3.799054027E-2
1.302744209E1,-5.761718750E-2,8.298301697E-2,-5.580383539E-2
1.312750922E1,-1.903352737E-1,1.155166626E-1,6.982573867E-2
1.322757565E1,-3.491115570E-2,1.089639664E-1,-8.358317614E-2
1.332764351E1,8.082354069E-2,5.095386505E-2,-1.633341312E-1
1.342771071E1,-9.583830833E-2,7.143402100E-2,7.129377127E-2
1.352777858E1,-1.030747294E-1,9.571075439E-2,-2.828574181E-2
1.362784514E1,-6.734806299E-2,5.655860901E-2,2.482917905E-2
1.372791224E1,-1.142957807E-1,7.097339630E-2,-1.882746816E-2
1.382797950E1,-1.966607571E-2,5.294036865E-2,-4.505258799E-2
1.392804687E1,-4.071426392E-2,4.309558868E-2,4.255470634E-2
1.402811400E1,-7.810682058E-2,6.213760376E-2,7.150264084E-2
1.412818100E1,-8.022725582E-2,9.042549133E-2,-4.314154387E-2
1.422824653E1,-9.132081270E-2,1.217317581E-1,-5.869475007E-2
1.432831369E1,-3.470116854E-2,6.252384186E-2,-1.317539811E-2
1.442838052E1,-1.056320071E-1,8.933258057E-2,4.030318558E-2
1.452844856E1,-9.308278561E-2,8.200645447E-2,1.256522536E-2
1.462851565E1,-3.843665123E-3,2.716827393E-2,4.282192886E-2
1.472858298E1,-3.478378057E-2,1.342868805E-1,-9.764170647E-2
1.482865055E1,-1.876145601E-1,4.350185394E-2,-4.644358158E-2
1.492871801E1,-6.394255161E-2,5.166625977E-2,-2.367228270E-2
1.502878528E1,-7.551980019E-2,7.527732849E-2,3.398106992E-2
1.512885244E1,-3.666013479E-2,8.837127686E-2,-6.761461496E-2
1.522891811E1,-7.231712341E-2,7.440471649E-2,-6.150394678E-3
1.532898520E1,-1.198546290E-1,5.043029785E-2,-5.265024304E-2
1.542905227E1,-1.808173656E-1,6.720542908E-2,-2.503997087E-2
1.552912060E1,-2.889573574E-2,1.178016663E-1,-8.274471760E-2
1.562918774E1,3.641909361E-2,4.552364349E-2,8.041983843E-2
1.572925490E1,-2.745407820E-2,3.143596649E-2,-1.359522343E-3
1.582932180E1,-1.166358590E-1,1.045007706E-1,-3.566756845E-2
1.592938866E1,-2.146814466E-1,1.475648880E-1,-1.150513887E-1
1.602945606E1,-1.574261785E-1,9.913253784E-2,1.784849167E-1
1.612945633E1,8.924365044E-3,4.058647156E-2,1.231596470E-1
1.622952269E1,-1.967989802E-1,1.525440216E-1,-3.330340981E-2
1.632958919E1,5.500632524E-2,6.784343719E-2,1.359137893E-2
1.642972409E1,-7.146346569E-2,6.262874603E-2,-4.332968593E-2
1.652979228E1,-1.373200417E-1,6.813335419E-2,3.594592214E-2
1.662985981E1,-1.070986390E-1,7.099819183E-2,-1.049801707E-2
1.672992695E1,-7.772803307E-3,7.053565979E-2,-2.809983492E-2
1.682999408E1,-7.402449846E-2,8.168697357E-2,3.295263648E-2
1.693006114E1,-1.254990101E-1,1.160507202E-1,-8.636134863E-2
1.703012757E1,-5.702489614E-2,4.481697083E-2,7.748945057E-2
1.713019470E1,-2.001547813E-2,5.803012848E-2,5.741870403E-2
1.723026094E1,-8.578807116E-2,6.420993805E-2,3.739416599E-3
1.733032810E1,-9.321755171E-2,5.576896667E-2,3.046005964E-2
1.743039520E1,-1.045459509E-1,9.913158417E-2,-3.929486871E-2
1.753046350E1,-2.166122198E-2,4.762649536E-2,-2.123123407E-2
1.763053033E1,-1.139934659E-1,4.867076874E-2,-3.081497550E-2
1.773059726E1,-1.200124025E-1,7.848167419E-2,-8.072787523E-2
1.783066382E1,-8.239573240E-2,8.943939209E-2,1.063689590E-2
1.793073132E1,4.441916943E-3,4.746723175E-2,-2.108108997E-2
1.803079875E1,-7.109874487E-2,5.797576904E-2,1.082170010E-2
1.813086662E1,-6.832814217E-2,8.026599884E-2,1.297545433E-2
1.823093262E1,-1.270441413E-1,7.822895050E-2,5.371776223E-2
1.833099968E1,-8.662408590E-2,7.831096649E-2,6.238126755E-2
1.843106645E1,-4.596501589E-2,7.465457916E-2,4.158437252E-3
1.853113468E1,-1.128516197E-1,5.869007111E-2,-4.935389757E-2
1.863120158E1,-7.731115818E-2,7.588005066E-2,-2.081739902E-2
1.873126864E1,-3.404670954E-2,3.129291534E-2,1.041966677E-2
1.883133577E1,-1.037221551E-1,1.033239365E-1,-1.302418113E-2
1.893140374E1,-4.750585556E-2,4.902362823E-2,7.167378068E-2
1.903147094E1,-8.203810453E-2,5.496501923E-2,-1.667124033E-2
1.913163006E1,-4.652988911E-2,7.220935822E-2,7.451257110E-2
1.923169509E1,-7.987767458E-2,7.535171509E-2,2.613353729E-2
1.933176212E1,-1.129212379E-1,8.525180817E-2,3.874289989E-2
1.943182952E1,-6.248736382E-2,5.297756195E-2,4.279059172E-2
1.953189815E1,-1.017632484E-1,8.507061005E-2,-4.576501250E-2
1.963196558E1,-1.010583639E-1,9.731197357E-2,-7.642689347E-2
1.973203264E1,-3.799605370E-2,6.550312042E-2,-5.726650357E-2
1.983209978E1,-1.032139063E-1,5.805969238E-2,4.733026028E-2
1.993216674E1,-7.129001617E-2,9.666633606E-2,3.822091222E-2
2.003223391E1,-5.868792534E-3,6.610012054E-2,7.184523344E-2
2.013230104E1,-1.197573543E-1,2.836704254E-2,5.522760749E-2
2.023236727E1,-8.183026314E-2,5.314159393E-2,7.054826617E-2
2.033243413E1,-8.012282848E-2,9.065532684E-2,-1.198155880E-1
2.043250123E1,-3.991055489E-2,7.023906708E-2,3.089162707E-2
2.053256930E1,-7.479536533E-2,6.828022003E-2,6.952840090E-2
2.063263780E1,-7.370078564E-2,8.376693726E-2,1.576307416E-2
2.073270506E1,-9.512054920E-2,8.254814148E-2,-2.973136306E-2
2.083277216E1,-2.951216698E-2,6.027889252E-2,1.381272078E-2
2.093283816E1,-7.627010345E-2,5.532264709E-2,2.541753650E-2
2.103290515E1,-8.972072601E-2,9.785556793E-2,-3.193512559E-2
2.113297188E1,-5.303466320E-2,7.715702057E-2,4.660934210E-2
2.123303735E1,-7.643795013E-2,5.917930603E-2,4.585501552E-2
2.133310454E1,-9.159922600E-2,1.077852249E-1,2.469018102E-2
2.143317201E1,-7.971441746E-2,7.685184479E-2,8.003765345E-2
2.153324157E1,-5.094742775E-2,5.790424347E-2,-4.361271858E-4
2.163330880E1,-6.029379368E-2,6.871223450E-2,1.106667519E-2
2.173337600E1,-1.349792480E-1,1.030368805E-1,-2.594551444E-2
2.183344837E1,-6.196558475E-2,7.445240021E-2,6.484758854E-2
2.193351550E1,1.071488857E-2,2.338123322E-2,-3.281995654E-2
2.203358330E1,-1.088558435E-1,1.092386246E-1,-5.083519220E-2
2.213364453E1,-6.434798241E-2,5.974769592E-2,1.236107945E-2
2.223371059E1,-9.611308575E-2,4.535961151E-2,5.076748133E-2
2.233377702E1,-4.893112183E-2,1.155967712E-1,-4.986321926E-2
2.243384419E1,-1.084004641E-1,1.000051498E-1,3.849643469E-2
2.253391232E1,-7.713615894E-2,8.403396606E-2,-7.799595594E-3
2.263397935E1,-8.387100697E-2,8.386898041E-2,-7.588863373E-3
2.273404648E1,-1.090594530E-1,7.876205444E-2,1.008765697E-1
2.283411348E1,-8.216178417E-2,5.068397522E-2,7.515639067E-3
2.293418067E1,-5.096685886E-2,6.116867065E-2,4.340797663E-3
2.303424774E1,-4.011273384E-2,3.551959991E-2,-5.792140961E-3
2.313431500E1,-1.211640835E-1,9.595966339E-2,2.206721902E-2
2.323438090E1,-4.017651081E-2,5.385398865E-2,2.065092325E-2
2.333444780E1,-3.830873966E-2,7.396125793E-2,-6.134724617E-2
2.344345376E1,-1.142363548E-1,9.153366089E-2,-4.263585806E-2
2.354986002E1,-5.353450775E-2,5.151844025E-2,-1.686340570E-2
2.365626475E1,-6.947815418E-2,7.290649414E-2,1.320737600E-2
2.376473795E1,-1.096367836E-1,6.322479248E-2,3.245770931E-3
2.386480501E1,-4.352867603E-2,1.009740829E-1,-3.750509024E-2
2.396487184E1,-8.357226849E-2,7.154560089E-2,-5.753815174E-2
2.406493988E1,-1.106551886E-1,6.565570831E-2,-4.278221726E-2
2.416500694E1,-5.733954906E-2,6.498908997E-2,2.922907472E-2
2.426507317E1,-5.190074444E-2,9.793090820E-2,-5.326533318E-2
2.436514600E1,-3.637337685E-2,6.594944000E-2,2.976986766E-2
2.446521323E1,-7.212233543E-2,7.756328583E-2,2.747929096E-2
2.456528153E1,-1.412537098E-1,1.245555878E-1,7.299655676E-2
2.466534296E1,-4.428815842E-2,7.135868073E-2,4.304489493E-2
2.476541006E1,-4.480278492E-2,6.597042084E-2,6.855913997E-2
2.486547716E1,-1.375302076E-1,1.063385010E-1,-3.525474668E-2
2.496554372E1,-6.500053406E-2,8.720016479E-2,1.738557220E-2
2.506561139E1,-2.309882641E-2,8.453559875E-2,-2.116495371E-2
2.516567825E1,-5.791461468E-2,5.297851562E-2,-3.021249175E-2
2.526574468E1,-1.423989534E-1,5.651092529E-2,8.195057511E-2
2.536581138E1,-5.270719528E-2,9.714126587E-2,-3.133186698E-2
2.546587891E1,-6.505274773E-2,8.759593964E-2,6.319135427E-3
2.556594664E1,-1.299558878E-1,9.344387054E-2,4.813975096E-2
2.566601361E1,-9.060335159E-2,6.133842468E-2,3.033304214E-2
2.576608071E1,-4.452204704E-2,9.181976318E-2,2.364271879E-2
2.586614791E1,-4.724144936E-2,1.034221649E-1,1.381194592E-2
2.596621490E1,-5.794560909E-2,7.446384430E-2,8.611103892E-2
2.606628247E1,-7.740259171E-2,5.503463745E-2,-7.032036781E-3
2.616635010E1,-4.815375805E-2,7.925891876E-2,3.732684255E-2
2.626641657E1,-7.877182961E-2,6.782817841E-2,-5.645325780E-2
2.636648327E1,-7.874464989E-2,9.195613861E-2,4.143849015E-2
2.646659709E1,-6.529045105E-2,3.710365295E-2,3.852522373E-2
2.656666519E1,-9.542608261E-2,8.534812927E-2,-1.503968239E-2
2.666673235E1,-8.111333847E-2,1.024923325E-1,-9.522113204E-2
2.676679878E1,-9.812462330E-2,9.671401978E-2,3.673464060E-2
2.686686585E1,-3.940474987E-2,6.967258453E-2,6.471300125E-2
2.696693298E1,-8.965349197E-2,8.598804474E-2,-6.118562818E-2
2.706700014E1,-2.649462223E-2,7.827186584E-2,1.790806651E-2
2.716706751E1,-7.743906975E-2,7.291889191E-2,9.684592485E-3
2.726713357E1,-8.157646656E-2,7.183647156E-2,1.883968711E-2
2.736720114E1,-4.067945480E-2,5.661392212E-2,5.869206786E-2
2.746726814E1,-8.327925205E-2,7.707214355E-2,4.508504272E-2
2.756733634E1,-1.947176456E-2,8.164691925E-2,2.308320999E-2
2.766740313E1,-8.267593384E-2,7.638740540E-2,4.650801420E-2
2.776747043E1,-7.454931736E-2,7.088375092E-2,1.728171110E-2
2.786753760E1,-5.166411400E-2,7.505130768E-2,-2.057585120E-2
2.796760473E1,-1.607848406E-1,9.302234650E-2,-2.316600084E-2
2.806767136E1,-8.639585972E-2,1.063537598E-1,-1.775062084E-2
2.816773806E1,-1.535296440E-2,6.345844269E-2,2.796301246E-2
2.826780895E1,-8.723163605E-2,9.280776978E-2,-1.603981853E-2
2.836787632E1,-1.981627941E-2,7.106494904E-2,-8.062720299E-4
2.846794388E1,-3.514766693E-2,9.176445007E-2,8.036226034E-3
2.856800721E1,-1.199620962E-1,7.486343384E-2,4.548156261E-2
2.866807441E1,-1.250847578E-1,6.934356689E-2,2.915689349E-2
2.876814151E1,-6.538510323E-3,6.486415863E-2,-2.364227176E-2
2.886820871E1,-1.026774645E-1,7.016086578E-2,7.531109452E-2
2.896827574E1,-1.616442800E-1,1.109056473E-1,-1.900807023E-2
2.906834274E1,-2.830779552E-2,5.114173889E-2,-3.746747971E-4
2.916840947E1,-1.146956682E-1,8.733463287E-2,7.823228836E-3
2.926847584E1,-2.064019442E-2,5.461120605E-2,7.628455758E-2
2.936854360E1,-1.390521526E-1,5.945873260E-2,-3.196907043E-2
2.946861110E1,-6.362551451E-2,1.139345169E-1,-1.025305986E-1
2.956867916E1,-2.850091457E-2,4.591178894E-2,2.555927634E-2
2.966874583E1,-1.580259800E-1,8.526325226E-2,-4.338622093E-4
2.976881293E1,-1.102245450E-1,4.092502594E-2,1.380357146E-2
2.986888069E1,-1.460615993E-1,7.914733887E-2,1.202282310E-2
2.996894776E1,-1.047447324E-1,7.592964172E-2,7.819086313E-3
3.006901492E1,-1.347704530E-1,7.606410980E-2,3.638574481E-2
3.016908112E1,-3.534609079E-2,5.825901031E-2,-8.587539196E-3
3.026915065E1,-2.873760462E-2,1.009016037E-1,-1.167312264E-1
3.036921781E1,-2.376645803E-1,9.456729889E-2,6.193512678E-2
3.046928518E1,5.112695694E-2,4.078578949E-2,2.417537570E-2
3.056934988E1,1.770359278E-2,1.368522644E-1,1.866183281E-1
3.066941684E1,1.202344894E-3,2.518873215E-1,2.854872346E-1
3.076948417E1,-1.555652022E-1,4.239082336E-3,-2.848649025E-2
3.086955167E1,-1.466132402E-1,8.583831787E-2,4.924160242E-2
3.096961900E1,-1.057261825E-1,1.032791138E-1,-4.991853237E-2
3.106968660E1,-1.989823580E-2,7.348918915E-2,-1.924145222E-2
3.116975306E1,-3.606498241E-2,9.007644653E-2,3.877425194E-2
3.126981956E1,-5.381745100E-2,8.023357391E-2,2.382040024E-3
3.136988676E1,-8.692091703E-2,1.094665527E-1,-4.994463921E-2
3.146995436E1,-7.444953918E-2,9.217739105E-2,1.602226496E-2
3.157002212E1,-8.983516693E-2,7.287311554E-2,-2.836382389E-2
3.167008865E1,-4.694104195E-2,8.032417297E-2,5.205839872E-2
3.177015579E1,-5.412876606E-3,8.067703247E-2,-2.078336477E-2
3.187022315E1,-1.698153615E-1,1.019010544E-1,-7.879078388E-3
3.197029028E1,-6.322276592E-2,5.750274658E-2,2.220869064E-3
3.207035741E1,-7.397300005E-2,4.456138611E-2,7.149094343E-2
3.217042391E1,-6.701344252E-2,6.926345825E-2,2.692329884E-2
3.227049034E1,-5.680346489E-2,1.176958084E-1,-5.381345749E-3
3.237055798E1,-2.675598860E-2,6.589603424E-2,1.506304741E-2
3.247062530E1,-7.288670540E-2,7.253360748E-2,7.802453637E-2
3.257069310E1,-4.758971930E-2,6.045341492E-2,8.571195602E-2
3.267075970E1,-8.479541540E-2,7.774257660E-2,-2.838313580E-2
3.277082697E1,-7.312238216E-2,7.513999939E-2,6.023618579E-2
3.287089416E1,-4.101586342E-2,7.514190674E-2,1.432877779E-2
3.297096116E1,-9.583330154E-2,7.340621948E-2,-3.192692995E-2
3.307103339E1,-6.294625998E-2,7.447719574E-2,5.210053921E-2
3.317110016E1,-6.803870201E-3,5.764770508E-2,1.286804676E-2
3.327116752E1,-1.117512584E-1,1.121454239E-1,-5.753844976E-2
3.337122999E1,-7.909935713E-2,6.447219849E-2,3.544867039E-3
3.347129738E1,-6.698775291E-2,6.271648407E-2,4.228550196E-2
3.357136445E1,-1.182234287E-2,8.809185028E-2,-1.988822222E-2
3.367143125E1,-8.994185925E-2,1.066408157E-1,-1.000374556E-2
3.377164567E1,-6.612652540E-2,5.074405670E-2,8.239448071E-3
3.387171260E1,-5.906009674E-2,7.200908661E-2,5.021136999E-2
3.397177967E1,-5.941867828E-2,5.566406250E-2,-1.050549746E-2
3.407184667E1,-6.145393848E-2,7.286453247E-2,-2.891981602E-2
3.417191330E1,9.124755859E-3,7.162952423E-2,1.164555550E-3
3.427198013E1,-1.190242767E-1,5.878448486E-2,3.645932674E-2
3.437204736E1,-5.948555470E-2,1.086511612E-1,-2.029144764E-2
3.447211506E1,-6.454420090E-2,6.966495514E-2,-9.602528811E-2
3.457218259E1,-6.992864609E-2,9.713554382E-2,2.310335636E-2
3.467224979E1,-1.088657379E-1,6.597328186E-2,3.659129143E-3
3.477231705E1,-2.393448353E-2,5.951976776E-2,7.094660401E-2
3.487238418E1,-2.371919155E-2,9.102439880E-2,-2.351224422E-2
3.497245132E1,-7.994365692E-2,8.352851868E-2,2.630835772E-2
3.507251851E1,-3.222131729E-2,8.540439606E-2,3.229069710E-2
3.517258928E1,-1.206917763E-1,6.450557709E-2,2.619504929E-3
3.527266238E1,-4.075658321E-2,4.683589935E-2,4.447466135E-2
3.537272994E1,-5.419766903E-2,8.172702789E-2,2.014052868E-2
3.547279341E1,-6.233644485E-2,1.052465439E-1,1.033246517E-3
3.557285454E1,-1.057307720E-1,6.987285614E-2,-1.030715704E-1
3.567292124E1,-6.464111805E-2,3.295898438E-2,1.375599504E-1
3.577298840E1,3.742218018E-3,5.206871033E-2,-4.835885763E-2
3.587305553E1,4.046106339E-2,7.743263245E-2,-1.014309525E-1
3.597312250E1,-7.249867916E-2,9.517288208E-2,-6.622183323E-2
3.607318946E1,-8.358776569E-2,4.519271851E-2,1.531857252E-1
3.617325562E1,1.169407368E-2,8.022022247E-2,-1.076141596E-1
3.627332199E1,-1.367355585E-1,8.276653290E-2,-1.122117043E-2
3.637338922E1,-4.567575455E-2,8.216667175E-2,-3.336799145E-2
3.647345728E1,-1.138267517E-1,9.796047211E-2,1.324951649E-3
3.657352535E1,-4.731321335E-2,6.889533997E-2,-1.294851899E-1
3.667359318E1,-7.338440418E-2,9.603786469E-2,8.914232254E-3
3.677366041E1,7.971763611E-2,3.434371948E-2,4.684406519E-2
3.687372754E1,1.754403114E-2,3.733730316E-2,5.287969112E-2
3.697379391E1,1.093342304E-1,4.895877838E-2,3.827095032E-2
3.707386104E1,-1.099468470E-1,4.687404633E-2,-5.333781242E-3
3.717392751E1,-4.058837891E-3,8.236122131E-2,-1.196527481E-1
3.727399437E1,-1.063303947E-1,8.915138245E-2,5.458921194E-2
3.737406137E1,-6.997585297E-2,6.853008270E-2,-7.200360298E-2
3.747412920E1,-7.642507553E-3,4.682540894E-3,-3.666859865E-2
3.757419677E1,4.935097694E-2,5.191802979E-3,-1.803320646E-2
3.767426403E1,-9.698510170E-2,1.048650742E-1,5.878168344E-2
3.777433110E1,1.167726517E-1,-3.734874725E-2,3.290379047E-2
3.787439823E1,-6.819486618E-3,2.303695679E-2,5.119979382E-3
3.797446539E1,1.489257812E-2,5.059242249E-2,-1.106852293E-2
3.807453259E1,-6.827330589E-2,8.302879333E-2,7.201313972E-2
3.818453842E1,-1.070454121E-1,1.139335632E-1,2.225357294E-2
3.828460486E1,-1.459550858E-2,4.543972015E-2,5.312991142E-2
3.838467252E1,-8.262085915E-2,9.639167786E-2,9.474527836E-2
3.848480825E1,1.842336655E-1,-7.761001587E-3,-5.242999792E-1
3.858487588E1,-1.140117645E-3,1.282205582E-1,1.947325170E-1
3.868494321E1,3.424763680E-2,7.742500305E-2,5.128026009E-3
3.878500978E1,-3.702263832E-1,1.931676865E-1,-4.246926308E-2
3.888507708E1,4.244303703E-2,3.462791443E-3,-2.880173922E-2
3.899441681E1,-8.735918999E-2,4.175186157E-2,3.886282444E-2
3.910082154E1,-1.303977966E-1,5.248641968E-2,9.110471606E-2
3.920722530E1,-8.983564377E-2,6.721973419E-2,4.672750831E-2
3.931536402E1,1.964354515E-2,7.913303375E-2,2.283009887E-2
3.941543102E1,-1.299061775E-1,1.120014191E-1,2.296477556E-3
3.951549895E1,-2.710938454E-2,6.009387970E-2,1.029125750E-1
3.961556682E1,-1.905539036E-1,1.246118546E-1,6.361949444E-2
3.971563478E1,-5.689835548E-2,7.785987854E-2,1.717388779E-1
3.981570232E1,-1.049093008E-1,7.874774933E-2,4.622890055E-2
3.991578071E1,-7.708251476E-2,9.114360809E-2,8.584514260E-2
4.001584784E1,-5.980765820E-2,1.233406067E-1,6.576976180E-2
4.011591468E1,-1.580005884E-1,5.299186707E-2,9.065371752E-2
4.021596891E1,6.130349636E-2,6.179428101E-2,-2.304744720E-2
4.031603540E1,-1.036776304E-1,9.744930267E-2,3.179889917E-2
4.041610240E1,-7.494664192E-2,1.210260391E-1,2.234548330E-2
4.051617050E1,-1.508074999E-1,9.351730347E-2,-4.941947013E-2
4.061623753E1,-5.024671555E-3,1.354818344E-1,-1.609901637E-1
4.071630479E1,-3.155589104E-2,7.030296326E-2,-1.484666951E-3
4.081637249E1,-1.125668287E-1,7.270145416E-2,1.499675214E-3
4.091643966E1,-1.078096628E-1,7.512569427E-2,1.364832819E-1
4.101650689E1,-9.692537785E-2,7.011699677E-2,3.293234110E-2
4.111657385E1,-8.703029156E-2,6.900310516E-2,1.194093525E-1
4.121660963E1,-9.276115894E-2,7.138824463E-2,5.194473267E-2
4.131667663E1,-8.076584339E-2,9.144401550E-2,7.718348503E-2
4.141674330E1,-2.354003191E-1,1.510524750E-1,-1.018303633E-2
4.151681103E1,-3.635311127E-2,8.419036865E-2,8.578419685E-2
4.161687796E1,-1.231237650E-1,1.350936890E-1,-9.886851907E-2
4.171694512E1,-6.121826172E-2,7.591915131E-2,3.911724687E-2
4.181701226E1,-9.021675587E-2,7.515430450E-2,-5.405431986E-2
4.191707976E1,-4.983055592E-2,5.659961700E-2,6.227953732E-2
4.201714665E1,2.425515652E-2,1.118164062E-1,-8.367381990E-2
4.211721345E1,-9.158170223E-2,7.080364227E-2,-9.125395119E-2
4.221727968E1,-8.769738674E-2,4.139328003E-2,3.603078425E-2
4.231734705E1,-8.371341228E-2,1.127614975E-1,1.266725361E-2
4.241741445E1,-3.487682343E-2,8.367824554E-2,6.813474000E-2
4.251748234E1,-1.168526411E-1,1.181259155E-1,-2.289935946E-3
4.261754984E1,-6.935691833E-2,8.116531372E-2,-1.084312797E-3
4.271761697E1,-9.964287281E-2,7.045745850E-2,7.504512370E-2
4.281768417E1,-6.779360771E-2,8.818244934E-2,-6.305328012E-2
4.291775097E1,-1.900017262E-2,1.036949158E-1,5.363747478E-2
4.301781817E1,-9.724426270E-2,7.194805145E-2,4.496511817E-2
4.311788520E1,-9.149920940E-2,1.114988327E-1,-1.727360487E-2
4.321795703E1,-9.539592266E-2,9.387493134E-2,6.975843012E-2
4.331802416E1,-7.481002808E-2,7.236957550E-2,2.266277373E-2
4.341809146E1,-5.187261105E-2,7.922649384E-2,-1.760950685E-2
4.351815392E1,-8.544659615E-2,1.288490295E-1,-2.160848677E-2
4.361822099E1,-6.001675129E-2,7.527828217E-2,2.197106183E-2
4.371828812E1,-7.817459106E-2,6.570720673E-2,1.137995422E-1
4.381835505E1,-8.485424519E-2,1.158895493E-1,-7.180773467E-2
4.391842225E1,-7.524299622E-2,9.631538391E-2,-8.665129542E-3
4.401848938E1,-1.099967957E-1,5.528163910E-2,8.375978470E-2
4.411855668E1,-4.082489014E-2,1.155185699E-1,-3.266837448E-2
4.421862328E1,-8.870422840E-2,1.151018143E-1,-3.702978790E-2
4.431869041E1,-4.468834400E-2,8.552646637E-2,2.692399919E-2
4.441875831E1,-7.570254803E-2,1.212282181E-1,-1.722565889E-1
4.451882570E1,5.694854259E-2,1.522302628E-1,-2.674986720E-1
4.461889287E1,-1.548206806E-2,1.275587082E-1,2.831739187E-2
4.471895950E1,-2.042277455E-1,1.183013916E-1,2.108365297E-1
4.481902690E1,-2.640932202E-1,1.485824585E-3,4.579063654E-1
4.491909443E1,2.854311466E-2,1.496725082E-1,-3.477084637E-2
4.501916136E1,-3.271007538E-2,4.198837280E-2,-2.924054861E-2
4.511922889E1,-8.371472359E-3,6.205368042E-2,-1.430029869E-1
4.521929492E1,-1.055846214E-1,6.191158295E-2,9.407794476E-2
4.531936176E1,-1.224339008E-1,2.082157135E-2,3.122069836E-1
4.541942856E1,-7.789474726E-2,4.680156708E-2,2.344381809E-1
4.551949609E1,-7.156568766E-2,5.270195007E-2,7.470333576E-2
4.561956348E1,-6.634271145E-2,6.961441040E-2,1.383348703E-1
4.571963062E1,-5.507457256E-2,6.591892242E-2,8.488130569E-2
4.581969795E1,1.231545210E-2,7.233047485E-2,1.148481369E-1
4.591976531E1,-4.667919874E-2,9.169101715E-2,1.489228010E-1
4.601983245E1,-1.053055525E-1,2.066173553E-1,-1.264752150E-1
4.611989998E1,-1.069127917E-1,-6.910896301E-2,2.278358936E-1
4.621996541E1,-2.970838547E-2,9.091186523E-2,1.370716095E-2
4.632003224E1,-8.255106211E-2,1.675720215E-1,-7.514083385E-2
4.642009907E1,-6.177777052E-2,6.741905212E-2,4.653906822E-2
4.652016770E1,-5.312418938E-2,1.361942291E-2,2.068388462E-1
4.662023503E1,-8.734673262E-2,3.197669983E-2,1.523625851E-2
4.672030216E1,-5.843532085E-2,2.068576813E-1,-2.541050911E-1
4.682036923E1,-6.787663698E-2,1.036386490E-1,-3.923642635E-2
4.692043646E1,-1.291126609E-1,2.152252197E-2,8.459556103E-2
4.702050386E1,-1.722094417E-1,9.140968323E-3,1.235976219E-1
4.712057109E1,6.574845314E-2,5.448341370E-2,-2.314524055E-1
4.722063696E1,-2.190053463E-2,-2.705574036E-2,2.157740593E-1
4.732070362E1,6.815552711E-3,1.136331558E-1,-1.119028330E-1
4.742077062E1,-3.119511604E-1,1.757631302E-1,-1.344518661E-1
4.752083948E1,-3.687632084E-2,1.153812408E-1,-1.693346500E-1
4.762090698E1,-1.324823499E-1,1.642456055E-1,-3.011244535E-2
4.772097361E1,-1.037892699E-1,7.373237610E-2,-2.795653641E-1
4.782104174E1,-1.249552965E-1,7.712078094E-2,-1.761241257E-1
4.792110867E1,1.007602215E-1,7.331752777E-2,2.999311686E-2
4.802117644E1,-3.296595812E-2,7.044696808E-2,2.130277157E-1
4.812124213E1,-6.604909897E-3,7.147407532E-2,2.587109804E-2
4.822130866E1,-1.647710800E-2,1.128053665E-1,-2.112108469E-2
4.832137563E1,-1.402433515E-1,9.395217896E-2,9.175568819E-2
4.842144346E1,-4.054063559E-2,8.385181427E-2,4.901111126E-3
4.852169397E1,-1.162562370E-1,1.310701370E-1,-2.274373174E-2
4.862176127E1,-1.462829113E-2,4.925346375E-2,1.194096804E-1
4.872182767E1,9.318435192E-2,6.709098816E-2,5.873480439E-2
4.882189516E1,-2.804601192E-1,1.940717697E-1,-1.586722136E-1
4.892196230E1,4.752337933E-2,-6.138801575E-3,9.021526575E-2
4.902202943E1,8.576178551E-2,4.426288605E-2,1.684408486E-1
4.912209659E1,-1.439343691E-1,2.694892883E-2,1.203850508E-1
4.922216256E1,-2.007915974E-1,7.570934296E-2,-1.187535077E-1
4.932222969E1,9.679132700E-2,1.722068787E-1,-1.496539265E-1
4.942229672E1,-1.314318776E-1,1.017417908E-1,1.253464818E-2
4.952236505E1,-1.300515532E-1,8.989906311E-2,-1.181001961E-2
4.962243222E1,-1.988937855E-1,2.015790939E-1,-1.760602295E-1
4.972249942E1,-2.182924747E-2,1.493082047E-1,-4.282978475E-1
4.982256648E1,1.360457540E-1,-1.025400162E-1,-9.479644150E-2
4.992263365E1,-4.376929998E-2,-1.211385727E-1,2.192006558E-1
5.002270078E1,2.050574422E-1,-1.649293900E-1,2.538846731E-1
5.012276798E1,-2.915314436E-1,1.543912888E-1,-2.655896842E-1
5.022283391E1,1.734870672E-1,1.081027985E-1,1.934767962E-1
5.032290111E1,-3.081845045E-1,1.533432007E-1,-2.437763065E-1
5.042296817E1,-2.179185152E-1,2.921962738E-1,-3.226869404E-1
5.052303644E1,-2.327336669E-1,-5.326366425E-2,2.196332812E-1
5.062310340E1,8.883267641E-2,5.259323120E-2,9.473583661E-3
5.072317063E1,4.309493303E-2,6.457138062E-2,5.702033266E-2
5.082323783E1,-2.362598777E-1,1.599664688E-1,-4.171448052E-1
5.092330533E1,4.169806838E-1,-9.404373169E-2,-9.397670627E-2
5.102337239E1,-3.115271330E-1,1.772890091E-1,6.913237274E-2
5.112343956E1,-9.440070391E-2,-2.097988129E-2,-7.949899882E-3
5.122350546E1,5.032479763E-2,1.028900146E-1,4.328326136E-2
5.132357269E1,-8.132898808E-2,5.605411530E-2,-4.179063439E-2
5.142363992E1,-1.336240768E-2,5.123043060E-2,5.223351717E-2
5.152370805E1,-1.653406620E-1,7.948303223E-2,2.693447471E-2
5.162377518E1,-1.003717780E-1,1.054964066E-1,6.622098386E-2
5.172384215E1,-5.445224047E-2,1.279468536E-1,-4.067166150E-2
5.182390931E1,8.922517300E-3,4.562568665E-2,8.205085993E-3
5.192397644E1,-5.963367224E-2,8.747577667E-2,-5.542787910E-2
5.202404334E1,-1.190940738E-1,1.092767715E-1,3.347255290E-2
5.212411041E1,-6.063038111E-2,2.466678619E-2,4.324053228E-2
5.222417664E1,5.461543798E-2,6.614780426E-2,-1.306297779E-1
5.232424367E1,-8.628445864E-2,1.871652603E-1,-1.735515893E-2
5.242431087E1,-7.289004326E-2,7.212066650E-2,8.699505031E-2
5.252437893E1,-5.493414402E-2,5.006599426E-2,5.740287900E-2
5.262444650E1,-7.734525204E-2,9.622287750E-2,-6.268034875E-2
5.272451366E1,1.588201523E-2,9.125614166E-2,8.904799819E-2
5.282458076E1,-6.041222811E-2,8.586883545E-2,1.539833099E-1
5.292458113E1,-1.386059523E-1,2.658081055E-2,-1.135502309E-1
5.302464789E1,-1.546790600E-1,7.542419434E-2,-8.756765723E-2
5.312471502E1,7.945799828E-2,7.701206207E-2,1.677481830E-2
5.322484789E1,-3.917795420E-2,5.301189423E-2,2.212844640E-1
5.332491502E1,-2.556413412E-2,7.002639771E-2,-1.679450274E-2
5.342498212E1,-1.081221700E-1,8.723068237E-2,-9.097091854E-2
5.352505015E1,-1.131379008E-1,1.678466797E-4,1.005982831E-1
5.362511761E1,-2.130502462E-2,1.272993088E-1,-3.487880528E-2
5.372518451E1,-1.648583412E-1,5.287265778E-2,2.459646016E-1
5.382525164E1,-2.325838804E-2,3.998851776E-2,1.390603185E-2
5.392531877E1,-3.233009577E-2,7.852649689E-2,3.683944046E-2
5.402538620E1,-5.848360062E-2,6.419372559E-2,-3.042201698E-2
5.412545317E1,-1.150767207E-1,4.862403870E-2,-1.130504012E-1
5.422551910E1,-9.266114235E-2,7.047843933E-2,-6.303553283E-2
5.432558560E1,-9.863334894E-2,5.900287628E-2,3.894177079E-2
5.442565303E1,-5.220508575E-2,5.202579498E-2,2.530430257E-2
5.452572133E1,-5.374372005E-2,6.893062592E-2,-3.961604834E-2
5.462578909E1,-1.336502433E-1,8.754253387E-2,2.448275685E-2
5.472585619E1,-5.373191833E-2,5.120849609E-2,1.258818805E-2
5.482592339E1,-2.709370852E-2,8.684825897E-2,1.220711619E-1
5.492599049E1,-6.592601538E-2,5.347061157E-2,4.144924879E-2
5.502605762E1,-8.166879416E-2,9.949207306E-2,-1.232919097E-2
5.512612492E1,-7.539558411E-2,1.060533524E-1,-3.016324341E-2
5.522619052E1,-6.685465574E-2,5.566215515E-2,-6.105969846E-2
5.532625795E1,1.349192858E-2,3.451251984E-2,3.926524520E-2
5.542632561E1,-1.037169099E-1,5.445384979E-2,5.519452691E-2
5.552639467E1,-3.229874372E-2,1.223287582E-1,-7.976600528E-2
5.562646157E1,-9.378004074E-2,8.409309387E-2,3.501623869E-3
5.572652804E1,-2.045780420E-2,9.071063995E-2,-8.901908994E-3
5.582659447E1,-3.341561556E-2,4.314517975E-2,-2.514265478E-2
5.592666156E1,-1.859551072E-1,2.461147308E-2,9.085872769E-2
5.602684039E1,-1.252394319E-1,9.469890594E-2,-5.883355439E-2
5.612690792E1,9.088569880E-2,1.126480103E-2,-8.332052827E-2
5.622697412E1,-5.073034763E-2,5.357360840E-2,-6.168058515E-2
5.632704092E1,-8.747208118E-2,8.707237244E-2,-5.057990551E-3
5.642710795E1,-1.338591576E-1,5.784702301E-2,3.865128756E-2
5.652717602E1,-1.348977089E-1,9.198284149E-2,-5.891975760E-2
5.662724808E1,5.264884233E-2,6.998729706E-2,-1.001601517E-1
5.672731521E1,-2.716171741E-2,5.419349670E-2,-2.553603053E-2
5.682738224E1,-2.278655767E-2,7.042217255E-2,-1.275208592E-2
5.692744478E1,-1.668345928E-1,1.614837646E-1,-1.058730483E-1
5.702751197E1,-1.498378515E-1,7.141780853E-2,1.644443423E-1
5.712757914E1,-8.045911789E-2,7.559680939E-2,2.908504009E-2
5.722764537E1,-2.823793888E-2,4.762744904E-2,4.145686328E-2
5.732771190E1,-3.219866753E-2,1.079998016E-1,-1.843051612E-2
5.742777917E1,-3.687196970E-2,4.376029968E-2,1.063662246E-1
5.752784686E1,-4.493761063E-2,5.120277405E-2,-5.024223030E-2
5.762791366E1,-1.083930731E-1,9.195041656E-2,-2.591751516E-2
5.772798079E1,-3.934311867E-2,8.189296722E-2,6.432384253E-3
5.782804822E1,-4.404217005E-2,9.851646423E-2,5.913351476E-2
5.792811626E1,-5.153286457E-2,7.495117188E-2,7.751554251E-2
5.802818332E1,-1.243249774E-1,5.085086823E-2,1.141016185E-2
5.812825015E1,-3.173273802E-2,7.904624939E-2,-1.411449909E-2
5.822831775E1,-6.213670969E-2,8.406734467E-2,5.277097225E-3
5.832838498E1,-1.161089540E-1,8.189964294E-2,5.059812963E-2
5.842845238E1,1.082420349E-3,8.154106140E-2,-9.858444333E-3
5.852851915E1,-8.460098505E-2,2.954292297E-2,-2.052654326E-2
5.862858508E1,-2.900969982E-2,5.710124969E-2,1.094578058E-1
5.872865201E1,4.056310654E-2,1.277027130E-1,-1.630448103E-1
5.882871914E1,-1.846935153E-1,8.234119415E-2,-1.004310101E-1
5.892878747E1,-1.145877242E-1,5.966186523E-2,-4.490558803E-2
5.902885934E1,-1.135778427E-2,2.512168884E-2,6.661017239E-2
5.912892640E1,7.385736704E-2,5.837535858E-2,5.382329226E-2
5.922899350E1,-1.038342714E-1,8.396148682E-2,6.326809525E-2
5.932905617E1,-8.939564228E-2,7.143115997E-2,1.142755747E-1
5.942912336E1,-7.007354498E-2,6.907367706E-2,4.180669785E-4
5.952919056E1,-8.170622587E-2,4.099845886E-2,-2.568601072E-2
5.962925623E1,-5.733466148E-2,2.267837524E-2,-4.942971468E-2
5.972932339E1,-5.887609720E-2,6.841564178E-2,-2.154137194E-2
5.982939049E1,-9.665542841E-2,1.021757126E-1,-4.298642278E-3
5.992945899E1,-6.759822369E-2,6.613731384E-2,-1.086872816E-1
6.002952602E1,-8.850204945E-2,9.525489807E-2,-3.744316101E-2
6.012959315E1,-4.735708237E-3,8.590316772E-2,6.063404679E-2
6.022966035E1,-3.659945726E-2,7.430648804E-2,4.959283769E-2
6.032972748E1,-1.069719195E-1,9.036159515E-2,4.964022338E-2
6.042979461E1,-7.411962748E-2,1.156196594E-1,3.147885203E-3
6.052986221E1,-5.854672194E-2,7.489395142E-2,8.883614838E-2
6.062992727E1,-1.000403166E-1,5.885505676E-2,9.039153159E-2
6.072999437E1,2.052909136E-2,5.357360840E-2,-7.163134217E-2
6.083006107E1,-1.335893273E-1,1.175136566E-1,-1.110084951E-1
6.093013033E1,-1.583943963E-1,-7.350158691E-2,1.942881644E-1
6.103019823E1,-9.886264801E-3,3.033256531E-2,8.368860930E-2
6.113026530E1,-6.618237495E-2,8.367729187E-2,1.577810943E-2
6.123033276E1,1.085662842E-2,8.633327484E-2,1.114107668E-2
6.133039919E1,-1.971691847E-2,6.193256378E-2,1.118002385E-1
6.143046619E1,-1.357445121E-1,6.134986877E-2,-2.217112482E-2
6.153053305E1,-6.834989786E-2,7.950687408E-2,-7.355745137E-2
6.163059962E1,-1.197999120E-1,6.438064575E-2,-1.483603120E-1
6.173066702E1,-5.213308334E-2,4.276180267E-2,7.160354406E-2
6.183073451E1,-6.625640392E-2,5.041599274E-2,1.224430501E-1
6.193080191E1,-1.002967358E-3,6.095886230E-2,5.013725162E-2
6.203086978E1,-1.485475302E-1,1.015233994E-1,-5.633004010E-2
6.213093674E1,-9.169095755E-2,9.774112701E-2,9.001195431E-3
6.223100414E1,-7.222455740E-2,4.151344299E-3,1.155045256E-1
6.233107027E1,-1.546275616E-2,1.050291061E-1,-5.465252697E-2
6.243113753E1,-9.975713491E-2,7.714748383E-2,-3.508484364E-2
6.253120473E1,-7.870876789E-2,6.308555603E-2,-2.125702798E-2
6.263127043E1,3.291428089E-3,4.879665375E-2,9.788210690E-2
6.273133713E1,-9.389638901E-2,7.090759277E-2,-4.389515519E-2
6.283140422E1,-1.520074010E-1,6.517314911E-2,9.819176048E-2
6.293147282E1,-3.589278460E-2,7.236957550E-2,-1.204745471E-2
6.303154002E1,-1.195525527E-1,7.942390442E-2,-1.791693270E-2
6.313160715E1,-6.977236271E-2,8.154296875E-2,2.338227630E-2
6.323167458E1,-1.054178476E-1,1.029529572E-1,-5.534020066E-2
6.333185651E1,-1.021189094E-1,7.427215576E-2,8.220272511E-2
6.343192364E1,7.315874100E-4,8.635616302E-2,1.273294389E-1
6.353199074E1,-9.048110247E-2,9.967899323E-2,9.174123406E-3
6.363205774E1,-2.540266514E-2,7.942008972E-2,-3.160116076E-2
6.373212454E1,-2.222436666E-2,6.727123260E-2,8.062835038E-2
6.383219137E1,-6.676226854E-2,8.229923248E-2,5.395936966E-2
6.393225890E1,-1.026759148E-1,8.032226562E-2,1.165705919E-2
6.403232633E1,-9.410911798E-2,1.170101166E-1,-2.148525715E-1
6.413239470E1,-2.927023172E-2,4.611492157E-2,1.378606707E-1
6.423246183E1,-4.816216230E-2,1.498222351E-1,5.658268929E-4
6.433252900E1,-1.007199883E-1,7.309818268E-2,3.493829072E-2
6.443259489E1,-5.144840479E-2,3.728485107E-2,-1.481902599E-2
6.453266209E1,-4.638701677E-2,1.072750092E-1,-1.843127608E-2
6.463272779E1,-8.645498753E-2,9.098243713E-2,5.778108537E-2
6.473279519E1,-9.756433964E-2,3.829479218E-2,7.820432633E-2
6.483286205E1,-5.910849571E-2,8.731365204E-2,1.472978592E-1
6.493293068E1,1.417160034E-2,7.930183411E-2,1.244023591E-1
6.503299785E1,-1.839126945E-1,9.691238403E-2,-1.140981019E-1
6.513306528E1,7.587641478E-2,5.685615540E-2,-9.447301924E-2
6.523313241E1,-7.013100386E-2,5.139732361E-2,1.358979940E-1
6.533319954E1,-2.969413996E-2,5.566787720E-2,9.361207485E-2
6.543326668E1,-1.289986372E-1,1.263208389E-1,-1.170975268E-1
6.553333384E1,-9.429001808E-2,7.934856415E-2,-2.361828089E-2
6.563340051E1,-9.067350626E-2,8.779811859E-2,-1.573297381E-2
6.573346767E1,-3.549176455E-2,5.374145508E-2,9.778510034E-2
6.583353480E1,-7.656365633E-2,8.010005951E-2,-4.559439421E-2
6.593360233E1,-1.372029781E-1,1.067409515E-1,-9.479445219E-2
6.603366947E1,-5.463612080E-2,4.708862305E-2,9.258444607E-2
6.613373653E1,-8.602732420E-2,8.166790009E-2,-6.264805794E-3
6.623380373E1,2.343159914E-2,1.090774536E-1,-9.179952741E-2
6.633387086E1,-3.394621611E-2,8.187294006E-2,1.256710589E-1
6.643393802E1,-1.821106076E-1,1.020193100E-1,4.347045720E-2
6.653400522E1,-7.460963726E-2,6.065368652E-2,-4.952248931E-2
6.663407622E1,-5.306124687E-3,1.302213669E-1,-9.070211649E-2
6.673414335E1,-6.384491920E-2,7.317447662E-2,6.602919102E-2
6.683421035E1,-1.145333648E-1,6.354045868E-2,-7.108777761E-3
6.693427358E1,-7.919299603E-2,9.707450867E-2,6.857143342E-2
6.703434068E1,-1.241874695E-2,5.689239502E-2,7.066872716E-2
6.713440795E1,-4.133182764E-2,5.920124054E-2,4.058212042E-2
6.723447504E1,-7.892268896E-2,4.237842560E-2,2.380281687E-3
6.733454218E1,-8.590030670E-2,9.041404724E-2,-2.359762788E-2
6.743460931E1,-5.848306417E-2,6.386566162E-2,-3.751188517E-3
6.753467644E1,-4.681146145E-2,5.184078217E-2,1.342706382E-2
6.763474284E1,-1.080931425E-1,7.822799683E-2,3.162470460E-2
6.774341510E1,-2.925103903E-2,9.255981445E-2,-4.785452783E-2
6.784982019E1,-1.598691940E-2,7.369327545E-2,2.770233154E-2
6.795622519E1,-1.005346179E-1,1.071853638E-1,-4.152619839E-2
6.806503199E1,-6.999748945E-2,8.967113495E-2,6.517618895E-3
6.816509918E1,2.273631096E-2,3.451538086E-2,-1.123800874E-3
6.826516648E1,-1.130228639E-1,5.153560638E-2,4.605896771E-2
6.836523364E1,-5.714482069E-2,8.051395416E-2,-1.550471783E-2
6.846530071E1,-6.026571989E-2,7.818031311E-2,-3.662705421E-4
6.856536737E1,-1.042737365E-1,8.053684235E-2,4.128891230E-2
6.866543427E1,-6.416231394E-2,5.890560150E-2,5.878348649E-2
6.876550177E1,-1.060375571E-1,9.749317169E-2,-6.896498799E-2
6.886557017E1,-1.103995442E-1,5.923652649E-2,6.013114750E-2
6.896563760E1,-1.025874019E-1,6.468009949E-2,1.412984729E-2
6.906570446E1,-3.859233856E-2,6.276035309E-2,-9.448862076E-2
6.916577093E1,-2.957165241E-2,5.591869354E-2,-2.637714148E-2
6.926583809E1,-1.233999133E-1,6.057548523E-2,-5.612492561E-3
6.936590522E1,-8.335936069E-2,7.909297943E-2,1.208785176E-2
6.946597239E1,-5.925142765E-2,5.212116241E-2,8.990611136E-2
6.956603925E1,-7.652825117E-2,7.592773438E-2,-3.411602974E-2
6.966610568E1,-1.303820014E-1,6.645011902E-2,1.634216309E-2
6.976617285E1,-1.921111345E-2,6.371212006E-2,5.107074976E-3
6.986624058E1,-3.222322464E-2,5.209255219E-2,-3.670483828E-3
6.996630904E1,-1.205351949E-1,8.110618591E-2,3.493808210E-2
7.006637608E1,-5.915808678E-2,4.000854492E-2,-1.011088490E-2
7.016644337E1,-3.864228725E-2,5.202674866E-2,1.904571056E-2
7.026650984E1,-7.092571259E-2,8.101749420E-2,-2.141684294E-2
7.036657767E1,-1.526017785E-1,6.864738464E-2,3.970448673E-2
7.046664424E1,-7.050704956E-2,2.559471130E-2,9.094461799E-2
7.056671067E1,-4.405403137E-2,4.325771332E-2,-2.015270293E-2
7.066677710E1,-7.734793425E-2,7.963562012E-2,-1.084055007E-2
7.076689822E1,-7.147800922E-2,1.057300568E-1,7.480725646E-3
7.086696632E1,-5.889165401E-2,5.556011200E-2,-2.594149113E-2
7.096703345E1,-6.836146116E-2,4.850101471E-2,3.289203346E-2
7.106710154E1,-6.192314625E-2,9.189701080E-2,-6.992861629E-2
7.116716844E1,-8.653557301E-2,8.221340179E-2,3.935363889E-2
7.126723561E1,-2.553862333E-2,5.096340179E-2,2.139788866E-2
7.136730257E1,-7.699859142E-2,7.270717621E-2,8.915543556E-3
7.146736960E1,-1.479385495E-1,1.013298035E-1,3.101874888E-2
7.156743627E1,-7.550054789E-2,2.995491028E-2,8.404409885E-2
7.166750383E1,3.092783689E-2,8.531570435E-2,-5.379259586E-2
7.176757723E1,-2.822268009E-2,8.088970184E-2,3.659588099E-2
7.186764483E1,-2.235417366E-1,5.120277405E-2,6.698168814E-2
7.196771102E1,-1.248544455E-2,9.362697601E-2,-4.940399528E-2
7.206777202E1,-3.227645159E-2,1.090650558E-1,3.696167469E-2
7.216784045E1,-9.205347300E-2,6.166553497E-2,2.284502983E-2
7.226790785E1,-3.065413237E-2,4.902553558E-2,1.590907574E-3
7.236797512E1,-7.662785053E-2,7.551288605E-2,3.642606735E-2
7.246804502E1,-5.778110027E-2,7.822227478E-2,-3.971859813E-2
7.256811161E1,-6.058788300E-2,7.808113098E-2,3.355202079E-2
7.266817834E1,-7.132005692E-2,6.091594696E-2,6.685517728E-2
7.276824148E1,-1.194409132E-1,5.597209930E-2,-2.741765976E-2
7.286830884E1,1.041644812E-2,7.021713257E-2,-5.569946766E-2
7.296837627E1,-6.727808714E-2,6.740856171E-2,1.015753299E-1
7.306844344E1,-7.759249210E-2,8.444881439E-2,-1.136770844E-2
7.316851073E1,-3.996616602E-2,1.008920670E-1,-1.665946841E-2
7.326857786E1,-5.038607121E-2,8.618640900E-2,-5.271166563E-2
7.336864496E1,-1.184185743E-1,7.163810730E-2,3.557309508E-2
7.346871670E1,-3.814721107E-2,6.411838531E-2,1.335291564E-2
7.356878903E1,-4.975819588E-2,1.216821671E-1,-4.353067279E-2
7.366885556E1,-7.364720106E-2,6.714725494E-2,1.146674156E-3
7.376891802E1,-3.402185440E-2,7.937717438E-2,5.174842477E-2
7.386897992E1,-5.517768860E-2,5.819606781E-2,-7.163995504E-2
7.396904802E1,-1.332194209E-1,7.444190979E-2,3.164565563E-2
7.406911515E1,-7.116216421E-2,6.245422363E-2,7.652781904E-2
7.416918212E1,-4.853981733E-2,6.283855438E-2,2.126041055E-2
7.426924885E1,-8.814209700E-2,6.523513794E-2,5.091835558E-2
7.436931601E1,-6.424599886E-2,7.728958130E-2,2.259707451E-2
7.446938328E1,-3.501808643E-2,8.738040924E-2,-5.047431588E-2
7.456944951E1,-7.049030066E-2,4.913902283E-2,7.958053052E-2
7.466951784E1,-7.827925682E-2,8.090019226E-2,2.869662642E-2
7.476958484E1,-4.296809435E-2,7.439041138E-2,-4.309228063E-2
7.486965267E1,-9.066790342E-2,7.704067230E-2,1.954260468E-2
7.496971860E1,-1.050087214E-1,1.055707932E-1,6.313663721E-2
7.506978940E1,-1.163076162E-1,7.936763763E-2,3.876706958E-2
7.516985623E1,3.262162209E-3,7.237243652E-2,-3.735482693E-3
7.526992319E1,-8.826100826E-2,6.328010559E-2,1.844868064E-2
7.536998682E1,-4.761594534E-2,5.628871918E-2,-6.546199322E-3
7.547005425E1,-5.090570450E-2,4.675102234E-2,1.820784807E-2
7.557012065E1,-1.228770018E-1,8.723545074E-2,-5.277118087E-2
7.567018765E1,-1.177730560E-1,7.995414734E-2,1.538091898E-2
7.577025508E1,-2.804088593E-2,9.922695160E-2,-1.322042942E-2
7.587032384E1,-5.969697237E-2,7.532596588E-2,3.734529018E-2
7.597039174E1,-9.036052227E-2,7.275009155E-2,1.882159710E-2
7.607045884E1,-7.195746899E-2,7.966804504E-2,-2.061465383E-2
7.617052527E1,-3.311181068E-2,4.381942749E-2,-7.175683975E-3
7.627059173E1,-1.222056150E-1,9.145164490E-2,6.493546069E-2
7.637065893E1,-6.856596470E-2,8.941173553E-2,1.024362445E-2
7.647072603E1,-5.227464437E-2,8.266258240E-2,2.506703138E-2
7.657079236E1,-1.085047722E-1,8.727741241E-2,1.815113425E-2
7.667085989E1,-7.122212648E-2,9.927940369E-2,9.507282078E-2
7.677092692E1,-5.691450834E-2,7.119846344E-2,5.623152852E-2
7.687099496E1,-4.958140850E-2,9.057140350E-2,1.563560963E-2
7.697106125E1,-9.796571732E-2,7.600021362E-2,2.158641815E-2
7.707112842E1,-1.120723486E-1,7.570838928E-2,7.537774742E-2
7.717119555E1,-2.706152201E-2,3.954410553E-2,4.692539573E-2
7.727126312E1,-9.015947580E-2,8.289337158E-2,2.737700939E-3
7.737133025E1,-1.204276085E-1,4.451751709E-2,5.573365092E-2
7.747139738E1,-4.025524855E-2,7.565593719E-2,-2.501240373E-2
7.757146328E1,-5.556935072E-2,7.858467102E-2,-6.164297462E-2
7.767153074E1,-9.775286913E-2,5.704975128E-2,1.286450028E-2
7.777160281E1,-3.084909916E-2,6.605339050E-2,1.017805040E-1
7.787167117E1,-3.503322601E-2,7.381534576E-2,-7.656937838E-2
7.797173797E1,-7.087153196E-2,4.737472534E-2,1.160252094E-2
7.807180020E1,-5.651211739E-2,3.506565094E-2,7.554990053E-2
7.817197454E1,-7.592254877E-2,7.348728180E-2,-4.360234737E-2
7.827204181E1,-9.806185961E-2,7.380199432E-2,2.800214291E-2
7.837210864E1,-5.811297894E-2,9.273433685E-2,5.477556586E-2
7.847217594E1,-8.849930763E-2,6.199550629E-2,5.718006194E-2
7.857224217E1,-6.793725491E-2,8.332920074E-2,4.131615162E-3
7.867230957E1,-2.719002962E-2,5.736827850E-2,2.354335785E-2
7.877237636E1,-5.737489462E-2,9.328079224E-2,7.063686848E-3
7.887244426E1,-7.497465611E-2,9.031105042E-2,-7.383495569E-3
7.897251146E1,-2.140247822E-2,5.403232574E-2,-1.485690475E-2
7.907257883E1,-1.039474607E-1,4.438114166E-2,-9.253263474E-3
7.917264612E1,-8.226442337E-2,7.839202881E-2,4.295289516E-2
7.927271326E1,-6.320077181E-2,8.093166351E-2,3.973078728E-2
7.937278032E1,-6.739223003E-2,8.344554901E-2,-3.562387824E-2
7.947284745E1,-6.886464357E-2,6.396293640E-2,1.100897342E-1
7.957291368E1,-9.984117746E-2,7.828140259E-2,1.371109486E-2
7.967298031E1,-2.086997032E-2,7.106971741E-2,-3.241458535E-2
7.977304715E1,-1.013689041E-1,8.293628693E-2,7.305996120E-2
7.987311514E1,-1.063776612E-1,8.492088318E-2,4.027202725E-2
7.997318291E1,-3.183948994E-2,8.737850189E-2,-1.916837692E-2
8.007325037E1,-7.286202908E-2,7.095813751E-2,-4.100129008E-2
8.017331750E1,-1.501400471E-1,6.109237671E-2,1.894032955E-2
8.027338457E1,-7.429510355E-2,9.186077118E-2,-3.188034892E-2
8.037345160E1,-6.376951933E-2,8.531188965E-2,-7.037827373E-2
8.047351870E1,-6.217306852E-2,5.735492706E-2,7.881522179E-3
8.057358723E1,-3.487771749E-2,6.466674805E-2,7.072593272E-2
8.067365383E1,-6.198394299E-2,9.359073639E-2,-4.420995712E-2
8.077372096E1,-8.708828688E-2,9.086990356E-2,2.030637860E-2
8.087378683E1,-7.808220387E-2,7.206535339E-2,2.226269245E-2
8.097385456E1,-7.351058722E-2,6.219005585E-2,2.333125472E-2
8.107392176E1,-5.860853195E-2,7.413578033E-2,1.604983211E-2
8.117398889E1,-6.998211145E-2,8.416461945E-2,1.684232056E-2
8.127405595E1,-1.173723340E-1,6.734848022E-2,2.227462828E-2
8.137412305E1,-4.840439558E-2,9.075832367E-2,-1.703411341E-3
8.147419012E1,-5.006718636E-2,5.732440948E-2,6.723855436E-2
8.157425648E1,-6.014078856E-2,8.144283295E-2,1.791585982E-2
8.167432335E1,-7.088959217E-2,6.433296204E-2,-9.255215526E-3
8.177439055E1,-1.500827074E-2,4.717731476E-2,4.636630416E-3
8.187445854E1,-1.034201384E-1,5.871772766E-2,3.504467010E-2
8.197452601E1,-8.595794439E-2,5.852317810E-2,1.912325621E-3
8.207459307E1,-7.951003313E-2,1.165351868E-1,-3.976944089E-2
8.217466014E1,-1.038533449E-2,9.322071075E-2,4.063874483E-3
8.227472724E1,-8.388638496E-2,7.364654541E-2,1.440019906E-1
8.237479440E1,-8.750641346E-2,6.416988373E-2,-4.044130445E-2
8.247486153E1,-5.561226606E-2,6.143093109E-2,-1.474678516E-3
8.257492750E1,1.285302639E-2,3.304672241E-2,7.097330689E-2
8.267500333E1,-1.059908867E-1,5.274486542E-2,1.947104931E-3
8.277507049E1,-8.052498102E-2,1.173992157E-1,-7.640960813E-2
8.287513886E1,-1.523375511E-2,6.262969971E-2,-1.672595739E-3
8.297519705E1,-1.118856072E-1,6.262969971E-2,5.133876204E-2
8.307526419E1,-7.933431864E-2,8.169555664E-2,-8.647024632E-3
8.317533132E1,-3.790837526E-2,5.985546112E-2,4.676803946E-2
8.327539878E1,-9.089332819E-2,9.544658661E-2,-4.562327266E-2
8.337546595E1,-5.284804106E-2,9.962749481E-2,8.747754991E-2
8.347553291E1,-7.980287075E-2,7.805824280E-2,2.715194225E-2
8.357560001E1,-7.132816315E-2,5.144882202E-2,3.379189968E-2
8.367566714E1,-5.355131626E-2,5.404090881E-2,2.344667912E-2
8.377573444E1,-4.922425747E-2,7.354164124E-2,3.483392298E-2
8.387580157E1,-9.833300114E-2,7.321643829E-2,-4.451572895E-4
8.397586920E1,-2.810180187E-2,5.184459686E-2,-5.725499988E-2
8.407593634E1,-8.226543665E-2,4.960632324E-2,1.433876157E-2
8.417600374E1,-6.860363483E-2,8.083248138E-2,5.734933913E-2
8.427607040E1,-4.560709000E-3,3.578472137E-2,1.211932302E-2
8.437613736E1,-8.054018021E-2,7.189178467E-2,-2.522900701E-2
8.447620426E1,-5.397742987E-2,1.027641296E-1,1.042120755E-1
8.457627103E1,-4.540288448E-2,8.640289307E-2,4.643408954E-2
8.467633832E1,-4.689121246E-2,9.111213684E-2,-2.131119370E-2
8.477640586E1,-2.614390850E-2,5.758380890E-2,6.063498557E-2
8.487647335E1,-7.461929321E-2,6.259155273E-2,3.825893998E-2
8.497654045E1,-3.454715014E-2,8.901119232E-2,-5.136799812E-2
8.507660725E1,-5.463987589E-2,5.530548096E-2,-1.724970341E-2
8.517667565E1,-1.053560376E-1,5.196857452E-2,3.749245405E-2
8.527674348E1,-4.744845629E-2,5.163097382E-2,4.704558849E-2
8.537681111E1,-8.816725016E-2,7.615089417E-2,3.046691418E-3
8.547687701E1,-5.825263262E-2,1.201496124E-1,-1.048198342E-1
8.557702658E1,-5.138963461E-2,8.449554443E-2,4.627907276E-2
8.567709291E1,-1.105540991E-2,5.382728577E-2,4.303157330E-4
8.577716074E1,-7.113254070E-2,7.956123352E-2,1.532784104E-2
8.587722844E1,-1.179321408E-1,7.429790497E-2,4.605895281E-2
8.597729584E1,-9.958118200E-2,7.132434845E-2,-2.469539642E-2
8.607736227E1,-2.480584383E-2,5.955410004E-2,-3.611496091E-2
8.617742940E1,-8.780199289E-2,4.275703430E-2,3.680439293E-2
8.627749653E1,-1.265707016E-1,8.096218109E-2,2.224564552E-2
8.637756363E1,8.871734142E-3,1.217918396E-1,-7.040914893E-2
8.647763146E1,-2.852207422E-2,6.456089020E-2,6.725931168E-2
8.657769803E1,-6.805670261E-2,5.529403687E-2,8.740752935E-3
8.667776506E1,-7.071059942E-2,9.618568420E-2,5.401235819E-2
8.677783149E1,-3.234982491E-2,3.174018860E-2,-2.120700479E-2
8.687789922E1,-1.437684894E-1,1.077108383E-1,3.972060978E-2
8.697796652E1,9.499806166E-2,5.230045319E-2,5.100570619E-2
8.707803355E1,1.933240891E-2,9.540176392E-2,-4.008242488E-2
8.717810065E1,-1.329947710E-1,5.657577515E-2,-5.585756898E-2
8.727816768E1,-2.321786880E-1,8.176994324E-2,4.518344998E-2
8.737823508E1,-1.329880953E-2,6.709766388E-2,-1.686111093E-2
8.747830215E1,-5.660533905E-3,1.297369003E-1,3.516942263E-2
8.757836868E1,1.077605486E-1,4.585456848E-2,-2.944567800E-2
8.767843558E1,-5.268400908E-2,1.002597809E-2,-1.263757050E-2
8.777850271E1,-9.061217308E-3,8.091068268E-2,8.395333588E-2
8.787857054E1,-1.337409019E-3,-3.335285187E-2,1.996586770E-1
8.797863774E1,-2.680438161E-1,3.240299225E-2,-1.920986325E-1
8.807870497E1,-2.459791303E-1,1.178970337E-1,1.794376969E-2
8.817877203E1,1.040784717E-1,1.322288513E-1,-1.208222806E-1
8.827883916E1,9.113752842E-2,5.481910706E-2,-4.080681503E-2
8.837890630E1,-1.472631097E-1,2.000331879E-1,-4.831287265E-2
8.847897359E1,-1.750488281E-1,-3.584575653E-2,2.647239864E-1
8.857903969E1,1.516503096E-2,8.307361603E-2,1.076233983E-1
8.867910669E1,-9.954816103E-2,1.929655075E-1,-5.032905936E-2
8.877917375E1,-4.969495535E-2,-1.758193970E-2,1.130555198E-1
8.887924228E1,4.033714533E-2,1.124610901E-1,-1.232545823E-1
8.897930945E1,-5.895662308E-2,-6.456375122E-3,8.167791367E-2
8.907938221E1,-1.702463627E-1,1.130294800E-1,-8.023504913E-2
8.917944894E1,-8.797585964E-3,5.653190613E-2,4.992020130E-2
8.927952234E1,4.001474380E-2,6.987857819E-2,-1.107735932E-2
8.937958384E1,-2.101913691E-1,8.772659302E-2,3.777417541E-2
8.947965094E1,-6.868410110E-2,9.778881073E-2,1.666344702E-2
8.957971097E1,-1.853269339E-2,5.579757690E-2,-3.438459337E-2
8.967978060E1,-3.180170059E-2,6.641960144E-2,-1.576299369E-1
8.977984786E1,-5.450600386E-2,8.545589447E-2,1.153631508E-2
8.987984896E1,-7.359284163E-2,-7.658004761E-4,1.501647234E-1
8.997991356E1,-1.094908118E-1,1.648178101E-1,-2.256501466E-1
9.007998069E1,-5.467045307E-2,5.235576630E-2,2.187470198E-1
9.018011479E1,5.814826488E-2,1.247062683E-1,-2.046836913E-2
9.028018212E1,-1.319737434E-1,5.492210388E-2,1.666869223E-1
9.038025158E1,1.761317253E-4,5.186462402E-2,-9.032483399E-2
9.048031872E1,-9.012401104E-2,7.330036163E-2,1.229950786E-2
9.058038445E1,-9.536433220E-2,4.011154175E-2,8.752097189E-2
9.068044818E1,-8.408111334E-2,8.765983582E-2,-5.771115422E-2
9.078051524E1,-4.040420055E-3,8.620834351E-2,-3.497260809E-2
9.088058424E1,-5.176824331E-2,6.794452667E-2,1.871913671E-2
9.098065680E1,-7.166838646E-2,6.553745270E-2,7.007971406E-2
9.108072373E1,-7.681602240E-2,1.086730957E-1,-4.886230826E-2
9.118079023E1,-6.532311440E-2,6.268310547E-2,2.228850126E-2
9.128085293E1,-3.446394205E-2,6.532955170E-2,6.189589202E-2
9.138091989E1,-1.101170182E-1,7.963848114E-2,1.582434773E-2
9.148098709E1,-4.851090908E-2,9.418582916E-2,1.027219146E-1
9.158105306E1,-1.093004346E-1,5.841064453E-2,3.416746855E-3
9.168112019E1,-5.893415213E-2,1.008100510E-1,8.959472179E-3
9.178118719E1,-4.046344757E-2,5.556774139E-2,5.249895155E-2
9.188125852E1,-1.514519453E-1,7.677841187E-2,1.712651551E-2
9.198132581E1,-8.749902248E-2,6.426525116E-2,1.089274958E-1
9.208139298E1,5.118846893E-4,4.309844971E-2,1.096036062E-1
9.218145711E1,-1.068534255E-1,5.995559692E-2,3.487755358E-2
9.228152457E1,-4.431635141E-2,6.364727020E-2,-2.328521013E-2
9.238159174E1,-1.136593223E-1,8.507156372E-2,-8.637928963E-2
9.248165894E1,-8.436083794E-2,3.230190277E-2,1.215920001E-1
9.258172520E1,5.109250546E-2,3.419876099E-3,1.089955941E-1
9.268179310E1,-1.265758872E-1,1.101684570E-1,-9.082466364E-3
9.278185963E1,-1.139717102E-1,6.453895569E-2,9.712129831E-2
9.288192773E1,-1.886522770E-2,5.306911469E-2,2.455639839E-2
9.298211877E1,-2.389484644E-2,1.229104996E-1,-4.455521703E-2
9.308218650E1,-8.766174316E-2,3.988075256E-2,3.067310154E-2
9.318225356E1,6.231427193E-3,6.985282898E-2,-9.812611341E-2
9.328232069E1,-1.479712129E-1,8.631324768E-2,-1.325427592E-1
9.338238772E1,-2.797365189E-3,1.276197433E-1,3.789821267E-2
9.348245486E1,-2.168995142E-2,8.773326874E-2,2.132168412E-2
9.358252149E1,-1.051476598E-1,5.467796326E-2,1.596699655E-1
9.368258835E1,-4.457253218E-2,9.142971039E-2,-6.985899806E-2
9.378265508E1,-1.915359497E-2,7.028007507E-2,1.101294160E-2
9.388272278E1,-7.262343168E-2,7.783412933E-2,4.618076980E-2
9.398279021E1,-6.061470509E-2,7.275104523E-2,3.929853439E-3
9.408285764E1,-1.048470140E-1,7.182979584E-2,2.585645020E-2
9.418292474E1,-4.826062918E-2,8.386802673E-2,-1.519654393E-1
9.428299194E1,-4.688519239E-2,2.334403992E-2,2.060357779E-1
9.438305937E1,-1.064245701E-1,8.006095886E-2,-7.869927585E-2
9.448312647E1,-1.009723544E-1,8.657169342E-2,3.683540225E-2
9.458319304E1,1.257497072E-2,7.693099976E-2,2.580279112E-2
9.468325990E1,-6.100845337E-2,3.097438812E-2,9.050877392E-2
9.478332703E1,-1.124629974E-1,2.194690704E-2,-4.012571275E-2
9.488339470E1,4.928988218E-2,5.435943604E-2,-1.948955059E-1
9.498346190E1,-8.171814680E-2,6.472492218E-2,-2.066329122E-2
9.508352959E1,-5.151647329E-2,1.077413559E-1,5.205065012E-3
9.518359676E1,4.660308361E-3,1.144189835E-1,1.365095377E-3
9.528366372E1,-2.488647699E-1,1.571750641E-1,-2.203494310E-3
9.538373038E1,-5.860477686E-2,2.783584595E-2,1.567204446E-1
9.548379748E1,-8.457899094E-2,7.430267334E-2,6.172685325E-2
9.558386405E1,6.988984346E-2,1.354980469E-1,-2.028974891E-1
9.568393118E1,-7.110160589E-2,1.021375656E-1,-8.720189333E-3
9.578399824E1,-1.482117176E-1,4.675006866E-2,8.912113309E-2
9.588406601E1,-1.218598485E-1,5.051612854E-3,1.083011627E-1
9.598413311E1,8.119177818E-2,2.938652039E-2,-9.565025568E-3
9.608420040E1,3.508329391E-3,5.438518524E-2,3.195050359E-2
9.618426760E1,-6.947255135E-2,9.042930603E-2,2.916207910E-2
9.628434063E1,-7.903379202E-2,7.564544678E-2,6.965488195E-3
9.638440763E1,-1.000505686E-1,2.498817444E-2,1.220972687E-1
9.648447549E1,-1.715916395E-2,6.602096558E-2,1.694044471E-2
9.658453589E1,2.615255117E-2,6.015110016E-2,-9.530234337E-2
9.668460289E1,-5.830204487E-2,3.955936432E-2,6.262390316E-2
9.678466939E1,-5.455291271E-2,5.901145935E-2,-4.515150189E-2
9.688473729E1,-1.295979619E-1,5.570316315E-2,8.116795123E-2
9.698480472E1,2.559602261E-3,5.885887146E-2,1.984144747E-2
9.708487185E1,-1.314222813E-2,8.710575104E-2,-3.172957897E-2
9.718493908E1,-1.265642047E-1,7.646942139E-2,7.197588682E-2
9.728500618E1,-6.815993786E-2,9.332752228E-2,2.267810702E-2
9.738507328E1,-5.070090294E-3,6.768226624E-2,-4.685184360E-2
9.748514044E1,-6.523776054E-2,6.479644775E-2,5.544140935E-2
9.758520661E1,-6.334918737E-2,1.017427444E-1,3.871649504E-3
9.768527341E1,-1.229594946E-1,9.431076050E-2,8.573541045E-2
9.778534047E1,-1.855995059E-1,8.196544647E-2,7.065871358E-2
9.788540857E1,-1.848882437E-2,1.071300507E-1,9.017078578E-2
9.798547600E1,-1.723164320E-2,2.838230133E-2,-2.748978138E-2
9.808554320E1,-6.751531363E-2,5.767059326E-2,-8.935016394E-2
9.818561037E1,-1.105229855E-1,8.220863342E-2,-8.861848712E-2
9.828567756E1,-1.138914227E-1,5.129623413E-2,-1.660692692E-2
9.838574460E1,-4.442173243E-2,9.576797485E-3,1.709791422E-1
9.848581173E1,5.652111769E-2,1.079730988E-1,-2.197158337E-2
9.858587819E1,-1.065893173E-1,5.106258392E-2,1.953258663E-1
9.868594509E1,-1.718106270E-1,1.349458694E-1,-1.404529214E-1
9.878601229E1,5.059152842E-2,4.973411560E-3,-7.303452492E-2
9.888608065E1,-6.572562456E-2,3.309249878E-4,1.525380164E-1
9.898614815E1,-1.093520522E-1,8.122634888E-2,1.412615180E-2
9.908621535E1,-2.483350039E-2,7.415676117E-2,-6.421554089E-2
9.918628258E1,-4.799288511E-2,5.575847626E-2,2.180960774E-2
9.928635021E1,-1.134759188E-1,6.779098511E-2,1.118546128E-1
9.938641724E1,-2.968329191E-2,1.400022507E-1,-1.015710533E-1
9.948648351E1,9.456151724E-2,9.005069733E-2,-9.060397744E-2
9.958654884E1,-3.186743855E-1,1.221971512E-1,1.092747748E-1
9.968661537E1,-1.835084558E-1,6.350612640E-2,1.046145111E-1
9.978668234E1,-1.686555147E-2,7.282257080E-2,-3.534716368E-2
9.988675080E1,4.597383738E-2,2.184772491E-2,-4.374745488E-2
9.998681846E1,-9.666520357E-2,1.981830597E-2,1.847361624E-1
1.000868860E2,-7.692098618E-2,1.153955460E-1,-1.445300877E-1
1.001869532E2,-5.849421024E-2,9.216117859E-2,-5.426850915E-2
1.002871168E2,-5.679702759E-2,3.765201569E-2,6.615711749E-2
1.003871901E2,-8.979201317E-3,7.235527039E-2,2.807211578E-1
1.004872572E2,-7.823753357E-2,4.144859314E-2,3.998190165E-3
1.005873234E2,-1.520377398E-2,5.592918396E-2,-1.310559511E-1
1.006873894E2,-6.881135702E-2,9.246444702E-2,-8.397039771E-2
1.007874565E2,-7.411980629E-2,1.066102982E-1,6.298354268E-2
1.008875251E2,-5.420792103E-2,5.856132507E-2,9.165288508E-2
1.009875871E2,3.642284870E-2,5.613899231E-2,-3.419670463E-2
1.010876543E2,-1.483396888E-1,9.869194031E-2,5.401885509E-2
1.011877216E2,-7.349240780E-2,5.976200104E-2,6.648139656E-2
1.012877888E2,-5.694931746E-2,5.725193024E-2,1.230290532E-1
1.013878556E2,-6.450909376E-2,1.197032928E-1,-4.399076104E-2
1.014879217E2,-7.640278339E-2,9.049224854E-2,-7.437190413E-2
1.015879879E2,-1.332291365E-1,3.750419617E-2,3.887537122E-2
1.016880542E2,1.576787233E-2,1.098327637E-1,-1.162326932E-1
1.017881215E2,-1.201118231E-1,5.678939819E-2,1.972639859E-1
1.018881899E2,-1.159366369E-1,7.532596588E-2,-8.100959659E-2
1.019882582E2,-1.879900694E-2,8.524513245E-2,3.139525652E-3
1.020883256E2,-5.990564823E-2,7.903289795E-2,1.687318087E-2
1.021883925E2,2.179563046E-2,4.387569427E-2,8.592610061E-2
1.022884596E2,-8.760023117E-2,6.501197815E-2,1.521731913E-1
1.023885263E2,-1.275610924E-1,5.218696594E-2,-2.527377009E-2
1.024885934E2,1.840102673E-2,9.104347229E-2,-1.109461486E-1
1.025886604E2,-1.511451602E-1,8.394432068E-2,-9.338760376E-2
1.026887262E2,-1.235005260E-1,-4.230499268E-3,1.876157075E-1
1.027887933E2,3.780329227E-2,2.568626404E-2,6.576457620E-2
1.028888607E2,-8.007347584E-2,8.310127258E-2,1.329535246E-2
1.029889291E2,-9.491068125E-2,9.598064423E-2,5.808874965E-2
1.030889962E2,-9.856784344E-2,5.462741852E-2,-9.134228528E-2
1.031890634E2,-6.433725357E-2,2.197360992E-2,7.046718895E-2
1.032891308E2,5.961966515E-2,5.901527405E-2,-3.710436821E-2
1.033891978E2,-5.571627617E-2,9.050941467E-2,-1.731693745E-2
1.034892649E2,-1.460433006E-3,3.703880310E-2,-4.247111082E-2
1.035893308E2,-1.063047647E-1,7.091617584E-2,-4.814156890E-2
1.036893964E2,-2.731776237E-2,5.681419373E-2,1.984232515E-1
1.037894634E2,-1.362648010E-1,1.000432968E-1,-7.435894012E-2
1.038895317E2,-1.267280579E-1,9.749603271E-2,-1.656256318E-1
1.039896004E2,-2.636671066E-3,8.546066284E-2,-6.039586663E-2
1.040896675E2,-1.052888632E-1,6.722259521E-2,5.254942179E-2
1.041897346E2,-1.462272406E-1,2.245521545E-2,9.520313144E-2
1.042898020E2,1.687049866E-2,7.665824890E-2,-4.079964757E-2
1.043898684E2,-3.971755505E-2,6.533527374E-2,6.390506029E-2
1.044899357E2,-3.904354572E-2,6.674289703E-2,5.430355668E-2
1.045900015E2,-8.530521393E-2,9.638595581E-2,2.862045169E-2
1.046992061E2,-8.358103037E-2,5.924415588E-2,1.312500089E-1
1.048056108E2,1.204347610E-2,9.104824066E-2,-6.418329477E-2
1.049120176E2,-9.455436468E-2,9.532928467E-2,5.914653838E-2
1.050202924E2,-1.550757289E-1,3.830337524E-2,1.610913724E-1
1.051203593E2,-1.075036526E-1,1.396226883E-1,-5.553910136E-2
1.052204262E2,-6.000965834E-2,4.554748535E-2,-1.422031522E-1
1.053204929E2,2.512037754E-3,1.048784256E-1,-1.499511600E-1
1.054205604E2,-1.376715302E-1,6.394004822E-2,1.267540157E-1
1.055206279E2,1.393949986E-2,-1.252460480E-2,1.581565738E-1
1.056206952E2,-4.180723429E-2,7.072448730E-3,2.556882203E-1
1.057207613E2,3.360885382E-2,6.239032745E-2,-3.958243132E-2
1.058208281E2,-2.127835751E-1,1.072988510E-1,-5.501636863E-2
1.059208951E2,-7.715368271E-2,6.637096405E-2,8.743344247E-2
1.060209632E2,-3.433096409E-2,3.266811371E-2,1.040155590E-1
1.061210307E2,-3.027319908E-3,7.003879547E-2,-8.429616690E-3
1.062210975E2,-3.632515669E-2,5.858325958E-2,-3.082770109E-2
1.063211646E2,-9.647530317E-2,6.005287170E-2,1.800564975E-1
1.064212318E2,-3.750967979E-2,1.056823730E-1,-1.260952055E-1
1.065213007E2,-9.613770247E-2,6.530189514E-2,-1.537734568E-1
1.066213716E2,3.054153919E-2,1.634435654E-1,-5.922639370E-2
1.067214443E2,-3.941398859E-2,1.453056335E-1,-4.360660911E-2
1.068215099E2,-1.870425344E-1,8.319759369E-2,1.744236201E-1
1.069215733E2,-3.940373659E-2,8.412933350E-2,-2.218657732E-2
1.070216345E2,-1.046299934E-1,8.555126190E-2,-1.216760278E-2
1.071217013E2,-5.283653736E-3,3.146743774E-2,1.473170966E-1
1.072217685E2,-3.234565258E-2,4.462242126E-2,-5.262580514E-2
1.073218360E2,-6.969445944E-2,5.307006836E-2,-3.793054819E-2
1.074219036E2,-4.301625490E-2,7.252502441E-2,-5.727706850E-2
1.075219707E2,-7.033115625E-2,8.224773407E-2,-3.938214481E-2
1.076220396E2,-1.948865056E-1,7.222080231E-2,1.159434095E-1
1.077221465E2,-2.374649048E-3,5.126857758E-2,6.559387594E-2
1.078222136E2,-1.393272877E-1,4.596138000E-2,-1.796528697E-3
1.079222791E2,-9.966993332E-2,1.268548965E-1,-5.452366173E-2
1.080223469E2,-9.535193443E-3,1.114864349E-1,-9.303101897E-2
1.081224140E2,-9.737557173E-2,7.674694061E-2,-9.800165892E-2
1.082224806E2,-9.235537052E-2,4.413604736E-2,2.739525437E-1
1.083225478E2,6.973183155E-2,4.842472076E-2,5.843052268E-2
1.084226150E2,-8.193874359E-2,9.905529022E-2,-3.211149573E-2
1.085226873E2,-4.313945770E-2,1.100282669E-1,-1.182075143E-1
1.086227522E2,-1.786522865E-1,6.759643555E-2,5.364197493E-2
1.087228238E2,-8.928656578E-3,4.755783081E-2,1.307986826E-1
1.088228862E2,6.079804897E-2,7.154560089E-2,-7.620471716E-2
1.089229555E2,-9.946781397E-2,4.393196106E-2,7.948483527E-2
1.090230183E2,-4.937279224E-2,6.070995331E-2,4.830299318E-2
1.091230852E2,-8.158129454E-2,7.523441315E-2,2.714887261E-2
1.092231525E2,7.148981094E-3,5.326557159E-2,-1.271241307E-1
1.093232195E2,-1.358652115E-2,1.089849472E-1,-1.898781061E-1
1.094232867E2,-1.147878766E-1,8.697700500E-2,3.179970384E-2
1.095233537E2,-1.047837138E-1,7.400131226E-2,2.174259722E-2
1.096234189E2,-2.362519503E-2,8.557987213E-2,2.198742330E-2
1.097234858E2,-2.758872509E-2,4.173660278E-2,3.472155333E-2
1.098235530E2,-5.039662123E-2,4.823207855E-2,5.746427178E-2
1.099236222E2,-1.332879066E-3,4.571723938E-2,4.005458951E-2
1.100236895E2,-1.285682917E-1,6.346988678E-2,4.351331294E-2
1.101237566E2,-5.288791656E-2,4.750442505E-2,-4.715700448E-2
1.102238236E2,-6.629794836E-2,3.689861298E-2,8.359935880E-2
1.103238908E2,1.944661140E-2,9.460258484E-2,2.259495854E-2
1.104239579E2,-8.469092846E-2,4.796695709E-2,-8.746314049E-2
1.105240252E2,-7.378029823E-2,5.864524841E-2,4.148891568E-2
1.106240902E2,-7.123982906E-2,8.508014679E-2,-1.286041737E-2
1.107241576E2,-5.088579655E-2,4.215049744E-2,6.332367659E-2
1.108242246E2,3.520381451E-2,4.252147675E-2,1.154648066E-1
1.109242938E2,-9.143966436E-2,7.954883575E-2,-1.769959033E-1
1.110243606E2,-1.382734179E-1,7.211399078E-2,-1.078721881E-2
1.111244279E2,-5.814510584E-2,7.408809662E-2,-8.612552285E-2
1.112244947E2,1.939821243E-2,1.325407028E-1,2.047389746E-2
1.113245624E2,-4.086649418E-2,1.424074173E-1,-5.573439598E-2
1.114246295E2,-1.377719641E-1,9.116649628E-2,1.133942604E-2
1.115246969E2,-1.047517657E-1,7.614517212E-2,-2.041432261E-2
1.116247614E2,-1.428770423E-1,1.018915176E-1,8.279612660E-2
1.117248282E2,3.454148769E-3,4.236698151E-2,7.795275748E-2
1.118248954E2,-4.073321819E-3,8.641815186E-2,-5.440303683E-2
1.119249647E2,-8.092790842E-2,9.000682831E-2,-3.640936315E-2
1.120250320E2,-1.455299258E-1,7.162570953E-2,8.092007041E-2
1.121250988E2,-7.987743616E-2,7.836246490E-2,-2.082292736E-2
1.122251660E2,-2.198880911E-2,7.215309143E-2,1.804322004E-2
1.123252332E2,-5.720955133E-2,6.662464142E-2,2.276904881E-2
1.124253006E2,-6.528866291E-2,9.161758423E-2,1.934215426E-2
1.125253678E2,-1.235634089E-2,9.251022339E-2,-1.751759648E-2
1.126254326E2,-1.473178864E-1,4.269599915E-2,7.075604796E-2
1.127255005E2,-3.422915936E-2,8.320808411E-2,1.218999624E-1
1.128255677E2,-4.632931948E-2,5.994319916E-2,5.264917016E-2
1.129256379E2,-1.459300518E-3,5.129814148E-2,4.993608594E-2
1.130257042E2,-7.503283024E-2,9.603977203E-2,-1.150918007E-1
1.131257713E2,-1.036632061E-1,7.934093475E-2,-1.317818463E-1
1.132258378E2,-1.407504082E-2,3.964900970E-2,-8.195742965E-2
1.133259050E2,-3.712397814E-2,1.054706573E-1,1.667907834E-2
1.134259721E2,-1.913088560E-2,1.682577133E-1,-1.324099898E-1
1.135260391E2,-1.696512103E-1,5.828285217E-2,1.595985889E-2
1.136261057E2,-1.177811623E-1,5.622673035E-2,3.345605731E-2
1.137261732E2,-3.210794926E-2,9.585094452E-2,-1.329359412E-2
1.138262404E2,-2.029818296E-2,5.257511139E-2,9.716622531E-2
1.139263082E2,-7.366079092E-2,9.081172943E-2,-1.022452116E-2
1.140263747E2,-1.222302914E-1,9.553241730E-2,-2.706816792E-2
1.141264419E2,-6.047713757E-2,5.960655212E-2,2.760054171E-2
1.142265091E2,-6.069451571E-2,1.077880859E-1,-4.772791266E-2
1.143265764E2,-5.943202972E-2,9.330654144E-2,1.092498004E-2
1.144266434E2,-9.244382381E-2,6.439018250E-2,-4.351556301E-3
1.145267104E2,-7.732254267E-2,8.333492279E-2,5.455704033E-2
1.146267751E2,-4.012024403E-2,9.084320068E-2,3.060698509E-2
1.147268428E2,-9.926003218E-2,6.429672241E-2,5.342946947E-2
1.148269099E2,-2.026474476E-2,1.379013062E-2,5.575774610E-2
1.149269797E2,-1.629644036E-1,7.845592499E-2,6.831780076E-3
1.150270480E2,-3.962117434E-2,6.152343750E-2,6.669551134E-3
1.151272144E2,-7.085132599E-2,4.957962036E-2,1.031494141E-2
1.152272813E2,-2.401852608E-2,6.660938263E-2,-4.521372914E-2
1.153273469E2,-6.695669889E-2,6.906890869E-2,-1.111578941E-2
1.154274143E2,-8.472955227E-2,8.301925659E-2,5.533058941E-2
1.155274812E2,-6.684881449E-2,6.836128235E-2,-2.804771066E-2
1.156275459E2,-4.395359755E-2,1.779460907E-2,8.347886801E-2
1.157276125E2,3.075754642E-2,6.240272522E-2,-5.016958714E-2
1.158276799E2,-1.011933088E-1,1.089468002E-1,-1.066729724E-1
1.159277502E2,-7.817751169E-2,7.293224335E-2,7.334473729E-2
1.160278175E2,-6.314820051E-2,7.749462128E-2,9.259492159E-3
1.161278847E2,-1.306247711E-1,8.240032196E-2,-2.461257577E-2
1.162279511E2,-5.367702246E-2,4.877567291E-2,3.334000707E-2
1.163280184E2,-7.221919298E-2,6.961154938E-2,-4.551291466E-3
1.164280855E2,-6.391823292E-3,5.286026001E-2,2.276599407E-4
1.165281526E2,-1.007723808E-1,5.736255646E-2,-1.439185143E-1
1.166282173E2,-2.104046941E-1,1.961231232E-2,2.524188757E-1
1.167282849E2,3.774428368E-2,8.467197418E-2,1.072345376E-1
1.168283520E2,-1.667331457E-1,5.269908905E-2,1.741802096E-1
1.169284215E2,-8.877116442E-2,1.062803268E-1,-1.125257313E-1
1.170284881E2,-1.179462671E-2,5.814170837E-2,-7.220479846E-2
1.171285553E2,-1.538473964E-1,1.170253754E-2,1.929825544E-2
1.172286224E2,1.578898430E-1,1.004371643E-1,-2.244611084E-1
1.173286896E2,-2.931174636E-1,1.327066422E-1,9.498572350E-2
1.174287574E2,-2.680104971E-2,2.165508270E-2,1.167552173E-1
1.175288245E2,-2.954810858E-2,8.602523804E-2,2.219355106E-2
1.176288900E2,-8.001196384E-2,1.197204590E-1,9.074777365E-3
1.177289558E2,-5.408585072E-2,8.107376099E-2,5.524849892E-2
1.178290226E2,-1.076133847E-1,5.975246429E-2,3.624480963E-2
1.179290917E2,-2.904582024E-2,7.478904724E-2,-4.518690705E-2
1.180291656E2,-7.046890259E-2,6.795120239E-2,1.065254211E-2
1.181292395E2,-8.515626192E-2,9.902572632E-2,4.046535492E-2
1.182293062E2,-5.833536386E-2,7.728099823E-2,1.035503894E-1
1.183293722E2,-9.655696154E-2,6.075191498E-2,-1.952451468E-2
1.184294330E2,-5.061054230E-2,9.154510498E-2,-7.002472878E-3
1.185295003E2,-7.605963945E-2,5.327796936E-2,1.285721213E-1
1.186295602E2,-6.734555960E-2,6.782627106E-2,-1.553624868E-3
1.187296271E2,-8.823019266E-2,8.943271637E-2,-3.870961070E-2
1.188296943E2,-4.228997231E-2,7.766151428E-2,3.807255626E-2
1.189297639E2,-6.710803509E-2,7.276058197E-2,9.974353015E-2
1.190298310E2,-3.606235981E-2,5.888557434E-2,1.818157732E-2
1.191298977E2,-8.519810438E-2,7.772159576E-2,-1.086217165E-2
1.192299644E2,-8.148843050E-2,1.107921600E-1,-1.061104238E-2
1.193300318E2,1.647686958E-2,5.445480347E-4,1.493117511E-1
1.194300992E2,-2.969479561E-2,1.120805740E-1,-1.132481992E-1
1.195301662E2,-1.833830476E-1,9.150409698E-2,-2.495691776E-1
1.196302314E2,-2.218526602E-2,5.725955963E-2,2.016186714E-2
1.197302984E2,-3.898191452E-2,1.375179291E-1,2.675265074E-3
1.198303651E2,-1.451145411E-1,9.224414825E-2,2.021356821E-1
1.199304344E2,-8.972930908E-2,8.893013000E-2,-5.543124676E-2
1.200305019E2,-1.574636102E-1,5.171203613E-2,4.126662016E-2
1.201305695E2,6.258529425E-2,8.744239807E-3,9.923180938E-2
1.202306373E2,-7.663965225E-4,7.652664185E-2,2.770388126E-2
1.203307041E2,-5.820304155E-2,1.008186340E-1,2.603173256E-2
1.204307729E2,-1.423354745E-1,6.869411469E-2,-1.273527741E-2
1.205308394E2,-2.733540535E-2,7.262992859E-2,1.703616083E-1
1.206309047E2,5.851876736E-2,9.136199951E-2,-7.730427384E-2
1.207309707E2,-9.425133467E-2,1.166543961E-1,-2.052805424E-1
1.208310377E2,3.807950020E-2,1.091880798E-1,4.893022776E-2
1.209311070E2,-6.694942713E-2,1.217308044E-1,6.630808115E-3
1.210311737E2,-1.866458058E-1,4.869461060E-3,2.296567857E-1
1.211312405E2,9.901010990E-2,1.338958740E-2,1.044906378E-1
1.212313084E2,-3.539210558E-2,3.231334686E-2,-1.646122932E-1
1.213313766E2,-1.401466131E-2,8.042812347E-2,-1.179959774E-1
1.214314440E2,-2.739535570E-1,2.735042572E-2,1.166002750E-1
1.215315105E2,6.579607725E-2,3.729343414E-2,7.131001353E-2
1.216315746E2,-3.435969353E-2,8.103752136E-2,-1.562593579E-1
1.217316424E2,-1.082608104E-1,1.261816025E-1,-4.984158278E-2
1.218317096E2,9.627759457E-3,5.371761322E-2,3.180164099E-2
1.219317783E2,-1.110260487E-1,8.373546600E-2,-1.024225354E-2
1.220318448E2,2.645719051E-2,2.374172211E-2,-7.003903389E-3
1.221319118E2,-1.230210066E-1,7.680225372E-2,-6.905257702E-2
1.222319792E2,-3.165626526E-2,7.679748535E-2,-9.972751141E-3
1.223320463E2,-1.148034334E-1,1.101741791E-1,-4.988908768E-2
1.224322903E2,1.758509874E-2,9.033584595E-2,-7.544916868E-2
1.225323575E2,-1.879073381E-1,8.425903320E-2,-9.031820297E-2
1.226324222E2,-1.229346395E-1,7.597160339E-2,5.203038454E-3
1.227324891E2,-1.686781645E-2,6.786251068E-2,5.549386144E-2
1.228325563E2,-8.423799276E-2,8.943843842E-2,5.433386564E-2
1.229326259E2,-6.458985806E-2,8.923149109E-2,3.405907750E-2
1.230326933E2,-1.148062944E-1,7.227611542E-2,-2.629965544E-3
1.231327605E2,-1.937919855E-2,7.777214050E-2,-3.251627088E-2
1.232328276E2,-3.489214182E-2,6.887722015E-2,2.951541543E-2
1.233328947E2,-7.043701410E-2,7.395744324E-2,-2.710998058E-3
1.234329618E2,-5.965965986E-2,9.070587158E-2,5.063787103E-2
1.235330290E2,-6.757920980E-2,3.376865387E-2,5.819311738E-2
1.236330940E2,-5.786538124E-2,8.904743195E-2,-5.654105544E-2
1.237331661E2,-5.260860920E-2,5.816364288E-2,1.049653888E-1
1.238332332E2,-7.686340809E-2,4.362297058E-2,8.299301565E-2
1.239333025E2,-8.775711060E-2,7.494926453E-2,-1.864573359E-2
1.240333647E2,-1.132537127E-1,7.216072083E-2,4.060213268E-2
1.241334318E2,-7.411241531E-2,5.307483673E-2,3.629554808E-2
1.242334990E2,-6.395876408E-3,7.750701904E-2,-9.878760576E-2
1.243335661E2,-6.072837114E-2,6.360435486E-2,-2.131876349E-2
1.244336333E2,-6.508415937E-2,6.110572815E-2,-2.318790555E-2
1.245337004E2,-1.089596152E-1,4.908084869E-2,8.260029554E-2
1.246337683E2,-3.470158577E-2,6.675434113E-2,2.194707692E-1
1.247338348E2,-1.220053434E-2,4.506397247E-2,-1.331758797E-1
1.248339019E2,-9.110736847E-2,8.607387543E-2,-1.604714692E-1
1.249339683E2,-4.610973597E-2,1.551055908E-2,1.631560773E-1
1.250340361E2,6.286060810E-2,6.707191467E-2,1.764434576E-2
1.251341032E2,-1.990194917E-1,7.842540741E-2,6.375467777E-2
1.252341702E2,-6.460309029E-3,8.321666718E-2,2.686041594E-2
1.253342373E2,-1.628975272E-1,9.388828278E-2,1.098108292E-2
1.254343044E2,1.329606771E-2,5.969238281E-2,5.380406976E-2
1.255343716E2,-6.357777119E-2,5.526638031E-2,1.666581631E-2
1.256344367E2,1.298880577E-2,3.366661072E-2,1.842239499E-2
1.257345032E2,-1.367424130E-1,6.567001343E-2,2.149432898E-2
1.258345701E2,6.119608879E-3,5.431747437E-2,2.004238963E-2
1.259346393E2,-2.091467381E-2,5.306911469E-2,1.562798023E-2
1.260347071E2,2.929687500E-3,6.321239471E-2,-5.677768588E-2
1.261347744E2,-9.456217289E-2,5.595779419E-2,3.656764328E-2
1.262348415E2,-9.661686420E-2,4.086112976E-2,6.997756660E-2
1.263349087E2,-7.520973682E-2,1.054725647E-1,-1.131954789E-2
1.264349760E2,-2.304244041E-2,8.758544922E-2,1.198408008E-2
1.265350430E2,1.183235645E-2,3.134441376E-2,3.807005286E-2
1.266351077E2,-8.233046532E-2,5.937004089E-2,-2.482083440E-2
1.267351749E2,-9.071832895E-2,9.511852264E-2,-1.215861440E-1
1.268352422E2,-5.092751980E-2,7.677078247E-2,-1.282187402E-1
1.269353115E2,-1.436105371E-1,2.326583862E-2,4.676598310E-2
1.270353794E2,8.290374279E-2,5.754852295E-2,3.401491046E-2
1.271354472E2,1.663982868E-2,5.123329163E-2,8.895814419E-2
1.272355145E2,-9.094780684E-2,7.162952423E-2,1.610454917E-2
1.273355809E2,-7.014679909E-2,4.326152802E-2,1.633975208E-1
1.274356474E2,-6.137669086E-2,8.498382568E-2,7.380032539E-2
1.275357145E2,-7.384932041E-2,1.086339951E-1,-2.270679176E-1
1.276357816E2,-9.238010645E-2,8.479595184E-2,8.966390789E-2
1.277358487E2,-7.748281956E-2,5.988407135E-2,1.261714846E-1
1.278359158E2,-4.552596807E-2,5.245018005E-2,-1.785385609E-2
1.279359835E2,-6.844592094E-2,4.819679260E-2,1.769834608E-1
1.280360506E2,3.248441219E-2,8.580684662E-2,-3.748306632E-2
1.281361183E2,-1.695242524E-1,9.929656982E-2,-1.502140462E-1
1.282361855E2,-1.366229653E-1,8.038711548E-2,-8.019071817E-2
1.283362526E2,-3.229331970E-2,-1.298618317E-2,8.278259635E-2
1.284363193E2,1.216400266E-1,2.316856384E-2,4.732376337E-2
1.285363858E2,-3.918230534E-2,-7.687568665E-3,1.363126338E-1
1.286364566E2,-7.694953680E-2,7.900714874E-2,-8.540889621E-2
1.287365234E2,-9.933519363E-2,1.183443069E-1,-5.928659439E-2
1.288365902E2,-1.008039713E-2,5.531311035E-2,-1.079162359E-1
1.289366537E2,-6.389653683E-2,4.926776886E-2,5.308637023E-2
1.290367209E2,4.927396774E-3,5.821418762E-2,2.289995551E-2
1.291367882E2,-6.609284878E-2,7.592105865E-2,-2.831280231E-2
1.292368553E2,-7.630854845E-2,7.559299469E-2,-3.271102905E-2
1.293369235E2,-8.485352993E-2,8.910655975E-2,9.959691763E-2
1.294369907E2,-9.002745152E-2,7.252788544E-2,9.937375784E-2
1.295370579E2,2.458441257E-2,4.412174225E-2,-2.433520555E-2
1.296371236E2,-4.452538490E-2,7.365894318E-2,6.482481956E-3
1.297371903E2,-5.324327946E-2,8.098888397E-2,1.275676489E-2
1.298373208E2,-8.991456032E-2,7.023525238E-2,5.029216409E-2
1.299373900E2,2.163493633E-2,4.554367065E-2,-1.577913165E-1
1.300374576E2,-3.477418423E-2,5.713653564E-2,2.358585596E-2
1.301375247E2,-3.211927414E-2,6.727790833E-2,6.255984306E-2
1.302375901E2,-1.209721565E-1,7.468509674E-2,2.154245973E-2
1.303376573E2,-1.515444517E-1,6.380271912E-2,1.336118579E-2
1.304377241E2,-1.145666838E-2,7.178020477E-2,1.977062225E-1
1.305377915E2,1.317286491E-2,8.443832397E-3,9.262524545E-2
1.306378565E2,-1.796184778E-1,4.573535919E-2,-8.416989446E-2
1.307379235E2,-9.450882673E-2,1.254301071E-1,-2.007526457E-1
1.308379906E2,-3.100776672E-2,2.218627930E-2,1.536418051E-1
1.309380604E2,-7.943212986E-3,5.928707123E-2,1.190266311E-1
1.310381327E2,-9.696590900E-2,4.624366760E-2,1.061229259E-1
1.311382000E2,-1.037688255E-1,8.099079132E-2,-6.577289104E-2
1.312382673E2,-5.386871099E-2,9.187984467E-2,-5.902642012E-2
1.313383292E2,-7.398980856E-2,6.284809113E-2,5.456227064E-2
1.314383960E2,-5.819636583E-2,5.764675140E-2,-6.117463112E-3
1.315384722E2,-1.481246948E-2,8.384037018E-2,5.552199483E-2
1.316385393E2,-6.151598692E-2,6.698513031E-2,-7.172706723E-2
1.317386062E2,2.824056149E-2,5.618286133E-2,-3.458151221E-2
1.318386635E2,-4.423928261E-2,8.061122894E-2,-1.625329256E-2
1.319387368E2,-4.600906372E-2,8.734416962E-2,1.701900363E-1
1.320388046E2,-1.157618165E-1,1.519222260E-1,-1.529075205E-1
1.321388717E2,-1.827996969E-1,8.418083191E-2,-2.141416371E-1
1.322389331E2,6.715428829E-2,3.117561340E-2,5.653142929E-3
1.323390002E2,-7.085448503E-2,1.462364197E-1,-1.293658018E-1
1.324390674E2,-1.250534058E-1,6.018352509E-2,1.802622378E-1
1.325391345E2,-8.949398994E-3,6.624507904E-2,-4.182517529E-2
1.326391994E2,9.872674942E-3,4.881286621E-2,9.437766671E-2
1.327392661E2,-1.651309133E-1,6.706905365E-2,-1.347026229E-2
1.328393330E2,3.340721130E-3,6.837844849E-2,1.013153642E-1
1.329394024E2,6.674969196E-2,7.108783722E-2,6.574034691E-3
1.330394700E2,-2.203826904E-1,7.846832275E-2,1.554152369E-2
1.331395372E2,-1.383107901E-1,8.039951324E-2,3.120169044E-2
1.332396044E2,2.458578348E-2,8.496379852E-2,1.521087885E-1
1.333396716E2,-4.486554861E-2,9.337615967E-2,-5.617132783E-2
1.334397389E2,-1.396927834E-1,1.312208176E-1,-2.848923802E-1
1.335398060E2,-5.974447727E-2,7.654190063E-2,1.363301277E-2
1.336398710E2,-1.027504802E-1,1.550579071E-1,-3.312939405E-2
1.337399378E2,-3.906494379E-2,2.437114716E-2,2.260584235E-1
1.338400046E2,-1.952171326E-3,6.733036041E-2,5.072683096E-3
1.339400739E2,-9.535247087E-2,5.326080322E-2,9.980043769E-2
1.340401411E2,6.959199905E-3,6.549549103E-2,9.932437539E-2
1.341402086E2,3.173363209E-2,8.607006073E-2,-6.468299031E-2
1.342402768E2,-4.031229019E-2,7.170391083E-2,-6.603559852E-2
1.343403441E2,-7.500362396E-2,3.911113739E-2,1.142111421E-2
1.344404116E2,-1.268594265E-1,4.117965698E-2,1.138666570E-1
1.345404777E2,-2.004408836E-2,1.134376526E-1,-1.635478437E-1
1.346405433E2,-3.189480305E-2,6.781673431E-2,-9.611183405E-2
1.347406099E2,-1.401180625E-1,5.417823792E-2,1.215122342E-1
1.348406770E2,1.024938822E-1,3.735828400E-2,2.265089452E-1
1.349407455E2,-2.297818661E-2,4.053783417E-2,7.233771682E-2
1.350408129E2,-5.199015141E-2,1.164541245E-1,-4.231193662E-2
1.351408801E2,-1.519235969E-1,9.174156189E-2,-7.153838873E-2
1.352409471E2,-6.877112389E-2,5.998706818E-2,4.438170791E-2
1.353410155E2,-4.507863522E-2,4.845237732E-2,-1.760572195E-2
1.354410825E2,8.029055595E-2,4.293346405E-2,7.592439651E-2
1.355411502E2,-2.291846275E-2,1.135749817E-1,7.297337055E-3
1.356412197E2,-2.242964506E-1,8.408737183E-2,-3.066533804E-2
1.357412864E2,-5.567610264E-2,7.960605621E-2,-1.170914471E-1
1.358413540E2,-8.884924650E-2,1.012716293E-1,-3.593495488E-2
1.359414170E2,-2.027022839E-2,4.472637177E-2,3.460049629E-4
1.360414853E2,-9.844636917E-2,3.554725647E-2,1.507335901E-2
1.361415517E2,-4.257035255E-2,6.736373901E-2,-4.278123379E-3
1.362416190E2,3.389883041E-2,5.035781860E-2,2.465385199E-2
1.363416859E2,-9.274983406E-2,3.748703003E-2,-6.497889757E-3
1.364417530E2,-1.382696629E-2,9.323215485E-2,9.162414074E-2
1.365418199E2,-6.022024155E-2,4.773616791E-2,3.800222278E-2
1.366418839E2,-1.074934006E-2,9.548377991E-2,-7.396414876E-2
1.367419507E2,-3.268063068E-2,3.923034668E-2,1.024436653E-1
1.368420181E2,-1.033005118E-1,7.855319977E-2,3.131055832E-2
1.369420883E2,-4.686450958E-2,9.684562683E-2,-5.734181404E-2
1.370421554E2,-3.228855133E-2,5.869579315E-2,-9.773296118E-2
1.371422227E2,-1.570553184E-1,8.886528015E-2,1.071283221E-2
1.372422895E2,6.911027431E-2,6.505966187E-2,-5.992293358E-3
1.373423630E2,-1.091217995E-2,6.430530548E-2,6.668657064E-2
1.374424301E2,-2.621104717E-1,6.607913971E-2,6.376534700E-3
1.375425014E2,-2.962774038E-2,1.107559204E-1,-1.264531314E-1
1.376425600E2,-8.553761244E-2,7.736396790E-2,1.176319569E-1
1.377426274E2,-6.956124306E-2,5.661010742E-2,3.380107880E-2
1.378428052E2,-1.188898683E-1,9.754467010E-2,1.535451412E-2
1.379428748E2,-1.141181588E-1,5.249023438E-2,1.092466265E-1
1.380429420E2,-1.370376348E-2,4.491806030E-2,7.957287133E-2
1.381430030E2,2.833753824E-2,2.793693542E-2,-2.318871617E-1
1.382430699E2,-1.220037341E-1,3.944301605E-2,4.069688916E-2
1.383431366E2,-7.159900665E-2,6.545925140E-2,9.803396463E-2
1.384432147E2,4.985707998E-2,1.342201233E-2,1.346568018E-1
1.385432822E2,-9.506213665E-2,1.112508774E-1,-5.916085839E-2
1.386433475E2,-4.591238499E-2,6.625080109E-2,-4.672184587E-2
1.387434033E2,-1.010339856E-1,3.970527649E-2,9.633913636E-2
1.388434705E2,-5.028986931E-2,5.874443054E-2,-9.520676732E-2
1.389435445E2,-4.150974751E-2,7.778739929E-2,-4.479241371E-2
1.390436117E2,-4.894959927E-2,7.280731201E-2,-5.803927779E-2
1.391436785E2,-1.359552741E-1,9.585762024E-2,-9.416177869E-2
1.392437409E2,-1.116576195E-1,6.649589539E-2,-4.111227393E-2
1.393438083E2,2.907979488E-2,7.699584961E-2,3.503853083E-2
1.394438757E2,-7.377153635E-2,7.942676544E-2,2.023282647E-2
1.395439431E2,-7.421994209E-2,6.622600555E-2,1.058722734E-1
1.396440145E2,-1.183264852E-1,1.057491302E-1,-8.269250393E-4
1.397440809E2,-4.559212923E-2,1.029319763E-1,-2.215027809E-3
1.398441479E2,-6.362766027E-2,6.583023071E-2,7.250814140E-2
1.399442111E2,-3.615427017E-2,1.050853729E-1,-1.991145611E-1
1.400442788E2,2.614796162E-3,6.902027130E-2,4.898917675E-2
1.401443459E2,-1.315343976E-1,6.434154510E-2,7.019256055E-2
1.402444127E2,1.337164640E-2,7.557010651E-2,6.380520761E-2
1.403444799E2,-3.343981504E-2,5.581951141E-2,-3.211957216E-2
1.404445470E2,-8.430457115E-2,5.563449860E-2,1.344403774E-1
1.405446139E2,-1.215730906E-1,8.037567139E-2,7.341569662E-2
1.406446788E2,-2.328372002E-2,1.081371307E-2,-5.020278692E-2
1.407447456E2,-1.309683323E-1,1.023778915E-1,-1.344303787E-1
1.408448131E2,-1.225992441E-1,-6.345748901E-3,3.308793902E-2
1.409448828E2,6.569206715E-2,-1.482391357E-2,1.407626867E-1
1.410449497E2,-4.773807526E-2,8.420467377E-2,-5.357965827E-2
1.411450168E2,2.458751202E-3,7.106113434E-2,1.055249572E-2
1.412450834E2,-8.873927593E-2,5.969333649E-2,5.018299818E-2
1.413451512E2,-7.670688629E-2,1.083955765E-1,8.919832110E-2
1.414452184E2,3.472507000E-2,3.789615631E-2,4.694248736E-2
1.415452855E2,-1.212192774E-1,7.736682892E-2,-1.097296774E-1
1.416453507E2,-9.881228209E-2,2.964496613E-2,5.332285166E-2
1.417454182E2,-6.417977810E-2,4.532909393E-2,1.110701114E-1
1.418454856E2,-5.695712566E-2,9.068679810E-2,1.741367579E-2
1.419455546E2,-4.653191566E-2,1.561164856E-2,-1.887079477E-1
1.420456220E2,-1.283571720E-1,7.084274292E-2,-1.216076910E-1
1.421456890E2,-1.465579867E-1,4.753494263E-2,2.146725655E-1
1.422457561E2,1.236495376E-1,2.793121338E-2,1.375227422E-1
1.423458226E2,-5.635708570E-2,7.672023773E-2,-5.976843834E-2
1.424458892E2,-1.396036744E-1,8.919429779E-2,9.854435921E-3
1.425459563E2,-1.461278200E-1,8.214378357E-2,1.139663160E-1
1.426460220E2,-2.752596140E-2,5.720233917E-2,-2.585735917E-2
1.427460898E2,3.098028898E-2,6.203174591E-2,6.083637476E-3
1.428461570E2,-7.195299864E-2,7.980442047E-2,-1.043641567E-2
1.429462264E2,-6.983995438E-2,7.462215424E-2,5.303531885E-2
1.430462943E2,-5.023181438E-2,9.423637390E-2,-5.825015903E-2
1.431463615E2,-2.598679066E-2,3.248596191E-2,9.848403931E-2
1.432464275E2,-2.573162317E-2,8.593559265E-2,1.567402482E-2
1.433464940E2,-7.528096437E-2,9.050941467E-2,-6.617155671E-2
1.434465611E2,-4.025369883E-2,4.375457764E-2,9.935504198E-2
1.435466282E2,9.009182453E-3,3.109169006E-2,1.211708784E-2
1.436466928E2,-8.975237608E-2,7.570743561E-2,-2.239087224E-2
1.437467596E2,-6.889426708E-2,1.019630432E-1,4.835025966E-2
1.438468272E2,-1.064069867E-1,6.846523285E-2,1.379383504E-1
1.439468967E2,-1.001526713E-1,8.586883545E-2,-1.139497459E-1
1.440469638E2,-4.646337032E-2,6.806659698E-2,1.431289017E-1
1.441470308E2,-7.006430626E-2,6.611919403E-2,7.547596097E-2
1.442470980E2,-6.617605686E-2,4.962062836E-2,1.164530516E-1
1.443471651E2,-2.782076597E-2,8.007049561E-2,-1.334489286E-1
1.444472323E2,-1.216934323E-1,7.147979736E-2,-1.012801826E-1
1.445472994E2,4.921698570E-2,1.068878174E-1,4.620641470E-3
1.446473649E2,-7.278490067E-2,8.948898315E-2,-7.639572024E-2
1.447474317E2,-1.612861156E-1,6.964683533E-2,8.860656619E-2
1.448474989E2,-5.240088701E-2,9.816169739E-2,-2.214667201E-2
1.449475687E2,-1.286982298E-1,8.359432220E-2,3.528863192E-3
1.450476361E2,-9.093880653E-3,7.892799377E-2,2.849203348E-2
1.451477097E2,-7.053214312E-2,3.824043274E-2,3.351789713E-2
1.452478750E2,-2.135181427E-2,4.703807831E-2,3.850519657E-3
1.453479419E2,-2.336621284E-3,4.886913300E-2,-6.345045567E-2
1.454480028E2,-1.105223298E-1,4.912376404E-2,8.344575763E-2
1.455480659E2,-9.555959702E-2,5.864048004E-2,-5.274385214E-3
1.456481312E2,-7.441413403E-2,1.139860153E-1,-2.772226930E-2
1.457481974E2,-9.647685289E-2,8.351707458E-2,1.309411675E-1
1.458482650E2,-2.924865484E-2,3.589439392E-2,6.432797015E-2
1.459483407E2,3.555893898E-3,6.360435486E-2,-1.401951611E-1
1.460484084E2,-9.337800741E-2,5.972766876E-2,-1.287352443E-1
1.461484755E2,1.630675793E-2,4.912185669E-2,-2.876383066E-2
1.462485366E2,-3.718197346E-2,1.369161606E-1,-1.626210809E-1
1.463486038E2,-2.039609551E-1,8.357620239E-2,1.120219380E-1
1.464486712E2,-1.571398973E-2,6.667423248E-2,-2.581623197E-2
1.465487380E2,-7.502424717E-2,7.412242889E-2,4.648482800E-2
1.466488034E2,-3.885680437E-2,9.117984772E-2,-1.287031174E-2
1.467488708E2,-3.667467833E-2,6.726741791E-2,1.212269068E-2
1.468489379E2,-1.076415181E-1,4.323291779E-2,-1.498639584E-3
1.469490068E2,-8.909547329E-2,1.002740860E-1,-5.181765556E-2
1.470490736E2,-3.558278084E-2,7.817173004E-2,3.374212980E-2
1.471491411E2,-8.010399342E-2,8.243942261E-2,-1.079225540E-2
1.472492081E2,-6.081926823E-2,8.906364441E-2,1.362823248E-1
1.473492753E2,-6.946504116E-2,6.494522095E-2,2.262499928E-2
1.474493421E2,-7.169824839E-2,6.941223145E-2,-1.029855013E-2
1.475494090E2,-6.591373682E-2,4.753017426E-2,1.253236830E-1
1.476494797E2,-8.299297094E-2,6.655311584E-2,3.058363497E-2
1.477495468E2,-6.072825193E-2,8.347702026E-2,-8.769534528E-2
1.478496142E2,1.517730951E-2,4.323577881E-2,-2.792963386E-2
1.479496778E2,-2.913677692E-2,4.346275330E-2,1.153170466E-1
1.480497465E2,-1.026609540E-1,1.440773010E-1,-1.418196857E-1
1.481498137E2,-3.111225367E-2,3.806877136E-2,1.087192893E-1
1.482498833E2,-2.746039629E-2,6.665420532E-2,-1.948437095E-2
1.483499489E2,-8.303743601E-2,6.810188293E-2,4.327753186E-2
1.484500160E2,-1.171136498E-1,5.778598785E-2,7.974141836E-2
1.485500802E2,-7.799136639E-2,1.125068665E-1,-4.372480512E-2
1.486501462E2,-3.561383486E-2,4.855155945E-2,1.977732778E-2
1.487502132E2,-2.857106924E-2,5.216598511E-2,1.509846449E-1
1.488502804E2,-5.631494522E-2,5.899906158E-2,-1.248008013E-2
1.489503487E2,-1.162396073E-1,1.346492767E-2,-2.507575154E-1
1.490504157E2,-1.114675403E-1,7.530117035E-2,-1.059776843E-1
1.491504831E2,-1.052917838E-1,1.680469513E-2,1.988736093E-1
1.492505502E2,1.488062739E-1,2.854537964E-2,1.426212639E-1
1.493506175E2,-4.690754414E-2,6.462860107E-2,1.185461879E-2
1.494506847E2,-8.733361959E-2,9.156799316E-2,-4.408282042E-2
1.495507519E2,-1.777188778E-1,8.568286896E-2,6.625062227E-2
1.496508172E2,-2.312159538E-2,2.371311188E-2,1.381531507E-1
1.497508841E2,9.464502335E-3,4.395103455E-2,5.606676638E-2
1.498509553E2,-3.904461861E-3,1.094341278E-1,-2.103207707E-1
1.499510240E2,-4.173493385E-2,5.599021912E-2,5.545979738E-2
1.500510918E2,-3.944993019E-2,5.855751038E-2,5.036482215E-2
1.501511549E2,-4.328143597E-2,6.594944000E-2,1.828890890E-1
1.502512222E2,-2.982759476E-2,2.055358887E-2,-4.156365991E-2
1.503512889E2,-3.007602692E-2,3.478908539E-2,-1.934497058E-1
1.504513558E2,-9.555578232E-3,1.413230896E-1,-1.336381435E-1
1.505514230E2,-8.581310511E-2,1.339845657E-1,-1.730576158E-2
1.506514888E2,-1.327937245E-1,3.647422791E-2,2.987704277E-1
1.507515562E2,-4.259860516E-2,1.056928635E-1,-1.973500848E-1
1.508516234E2,-1.250159740E-2,7.450008392E-2,8.740812540E-3
1.509516916E2,3.200697899E-2,4.819107056E-2,1.700460315E-1
1.510517588E2,-1.153534651E-1,9.534835815E-2,6.089836359E-2
1.511518260E2,-1.550117135E-1,1.016092300E-1,-5.590671301E-2
1.512518934E2,-1.107144356E-2,8.105182648E-2,4.627782106E-2
1.513519638E2,-3.634452820E-2,3.622341156E-2,3.348326683E-2
1.514520309E2,-1.245599985E-2,5.440425873E-2,-3.387904167E-2
1.515520976E2,-1.637193561E-1,4.952907562E-2,1.571259797E-1
1.516521676E2,2.040088177E-3,6.736564636E-2,9.468849003E-2
1.517522343E2,-7.320702076E-2,1.650810242E-2,1.103793085E-1
1.518523019E2,-6.999135017E-2,1.191692352E-1,-2.389994562E-1
1.519523629E2,-1.650553942E-1,8.797168732E-2,1.486325264E-2
1.520524310E2,-1.214513183E-1,3.056812286E-2,9.013360739E-2
1.521524981E2,1.441136599E-1,4.669284821E-2,-7.751372457E-2
1.522525652E2,7.601028681E-2,4.796123505E-2,7.796743512E-2
1.523526314E2,-1.253161430E-1,1.149530411E-1,-3.676983714E-2
1.524526988E2,-1.134911180E-1,8.968639374E-2,9.982249141E-2
1.525527664E2,-1.016973853E-1,5.831718445E-2,5.832456052E-2
1.526529143E2,-3.842097521E-2,6.647205353E-2,-8.184537292E-3
1.527529812E2,-8.207941055E-2,5.872631073E-2,5.180469155E-2
1.528530479E2,-4.466223717E-2,6.528091431E-2,3.043903410E-2
1.529531038E2,2.746528387E-2,3.078174591E-2,1.720498502E-2
1.530531708E2,-6.020605564E-2,1.056671143E-1,-9.104984999E-2
1.531532413E2,-6.388062239E-2,3.337097168E-2,1.165884584E-1
1.532533085E2,-1.261341572E-2,1.529483795E-1,1.785288304E-1
1.533533754E2,-1.715540290E-1,2.044963837E-1,-1.249494553E-1
1.534534393E2,-3.964257240E-2,1.014328003E-1,-2.190555334E-1
1.535535061E2,-1.184713840E-2,-2.688789368E-2,1.220467985E-1
1.536535721E2,3.250825405E-2,-8.258819580E-3,1.505462825E-1
1.537536391E2,-2.908778191E-2,6.332015991E-2,-5.357569456E-2
1.538537064E2,-1.180598736E-1,6.345558167E-2,9.259492159E-3
1.539537751E2,-5.192965269E-2,4.334163666E-2,-2.335435152E-2
1.540538420E2,1.226782799E-2,3.176689148E-2,1.226777732E-1
1.541539102E2,-1.402133107E-1,6.529140472E-2,9.465458989E-2
1.542539773E2,-1.236187220E-1,6.798076630E-2,-1.992447972E-1
1.543540476E2,7.443726063E-3,8.620166779E-2,-5.963003635E-2
1.544541137E2,1.606935263E-2,4.712295532E-2,1.278764457E-1
1.545541802E2,-1.456080079E-1,7.440948486E-2,3.508169949E-2
1.546542433E2,-5.624616146E-2,6.796741486E-2,9.808033705E-2
1.547543105E2,-1.277941465E-2,6.229877472E-2,-2.237453461E-1
1.548543780E2,-8.240717649E-2,6.683540344E-2,-1.401958764E-1
1.549544460E2,-3.647720814E-2,1.775255203E-1,-7.797876000E-2
1.550545132E2,-3.347933292E-3,1.082515717E-1,-1.178303361E-2
1.551545814E2,-1.610555053E-1,5.254364014E-2,1.364672333E-1
1.552546485E2,4.747498035E-2,5.458736420E-2,6.908953190E-2
1.553547155E2,-9.694850445E-2,3.711318970E-2,8.739916980E-2
1.554547819E2,9.041428566E-3,9.345531464E-2,-5.709984899E-2
1.555548490E2,-3.379535675E-2,2.726745605E-2,7.396166027E-2
1.556549144E2,-7.400059700E-2,1.434326172E-2,1.214865148E-1
1.557549812E2,-5.453646183E-2,2.917194366E-2,-9.787976742E-3
1.558550484E2,-9.971892834E-2,1.041650772E-1,5.393347144E-2
1.559551173E2,-4.977160692E-2,5.472755432E-2,4.087144136E-2
1.560551855E2,-3.100001812E-2,4.317951202E-2,2.531138062E-2
1.561552529E2,-3.001904488E-2,7.250976562E-2,2.002775669E-2
1.562553197E2,-6.310158968E-2,2.024555206E-2,-4.156628251E-2
1.563553858E2,1.547789574E-2,5.304718018E-2,-1.278948486E-1
1.564554530E2,-3.470897675E-2,1.540184021E-1,-6.344071031E-2
1.565555258E2,-1.695824862E-1,1.572074890E-1,4.758018255E-2
1.566555915E2,-5.432975292E-2,9.329795837E-2,1.090539694E-1
1.567556586E2,1.016592979E-1,4.416751862E-2,-9.219259024E-3
1.568557201E2,-1.245750785E-1,7.270431519E-2,3.522486985E-2
1.569557889E2,-3.487843275E-2,1.006708145E-1,-7.889240980E-3
1.570558558E2,-4.450184107E-2,3.271961212E-2,3.854571283E-2
1.571559226E2,7.260072231E-2,8.865642548E-2,-1.596474946E-1
1.572559898E2,-5.328667164E-2,8.347606659E-2,-9.507983923E-3
1.573560571E2,-1.134602427E-1,7.874679565E-2,5.112002790E-2
1.574561245E2,-1.293524504E-1,7.338047028E-2,1.251967251E-2
1.575561917E2,5.681598186E-2,3.171539307E-2,1.723993123E-1
1.576562574E2,-7.892411947E-2,3.507614136E-3,2.268104255E-2
1.577563246E2,-8.868634701E-2,8.134460449E-2,-9.680101275E-2
1.578563917E2,-1.423390508E-1,8.853721619E-2,-3.927606344E-2
1.579564604E2,-9.486448765E-2,-3.509521484E-4,1.313674003E-1
1.580565282E2,3.558808565E-2,2.391052246E-2,6.357872486E-2
1.581566008E2,-1.685363054E-2,5.526542664E-2,1.478719264E-1
1.582566776E2,-1.565845013E-1,8.440780640E-2,2.848199010E-2
1.583567443E2,3.841269016E-2,7.062149048E-2,-3.168836236E-2
1.584568061E2,-4.014593363E-2,4.595470428E-2,6.258869171E-2
1.585568633E2,-3.773802519E-2,3.289890289E-2,-1.226115227E-2
1.586569287E2,-6.732618809E-2,9.978103638E-2,1.641818881E-2
1.587569962E2,-3.880125284E-2,5.905342102E-2,-9.305197001E-2
1.588570633E2,-7.187306881E-2,5.923652649E-2,6.794925034E-2
1.589571325E2,-8.152502775E-2,3.382396698E-2,1.360777766E-1
1.590572050E2,-9.444832802E-3,1.150579453E-1,-1.035698056E-1
1.591572724E2,-7.929068804E-2,9.935474396E-2,-1.922393441E-1
1.592573406E2,-4.013323784E-2,7.790374756E-2,1.472732425E-2
1.593574042E2,-1.309500933E-1,5.261230469E-2,-6.165406108E-2
1.594574714E2,-7.146179676E-2,8.333492279E-2,-2.736309171E-2
1.595575371E2,-1.843810081E-3,4.658317566E-2,1.176556796E-1
1.596576057E2,-1.020067930E-1,2.928066254E-2,8.440950513E-2
1.597576725E2,5.952358246E-3,5.978202820E-2,2.272662520E-2
1.598577394E2,-5.440092087E-2,5.022907257E-2,-4.522445798E-2
1.599578074E2,-6.342816353E-2,6.433582306E-2,5.211699009E-2
1.600579386E2,-7.626914978E-2,7.138538361E-2,4.822990298E-2
1.601580051E2,-5.174267292E-2,9.734153748E-2,7.988661528E-3
1.602580672E2,-9.074968100E-2,6.760406494E-2,8.769874275E-2
1.603581340E2,-3.341484070E-2,1.908588409E-2,1.484588385E-1
1.604582014E2,-1.019253731E-1,6.484603882E-2,-1.244351268E-2
1.605582749E2,-5.795967579E-2,8.327960968E-2,-3.902494907E-2
1.606583402E2,-7.704734802E-3,1.362037659E-2,7.897067070E-2
1.607584089E2,-5.276262760E-2,6.130313873E-2,-4.649728537E-3
1.608584701E2,-5.039227009E-2,7.328987122E-2,4.617333412E-3
1.609585388E2,-3.467780352E-2,2.202892303E-2,-4.725933075E-2
1.610586044E2,-7.707238197E-2,7.114315033E-2,6.980359554E-2
1.611586714E2,-8.073848486E-2,5.564308167E-2,1.872813702E-2
1.612587388E2,-3.663939238E-2,9.138011932E-2,-2.598661184E-2
1.613588066E2,-4.491758347E-2,7.907772064E-2,1.585125923E-3
1.614588738E2,-1.161134839E-1,1.043357849E-1,1.013206691E-1
1.615589460E2,-2.810925245E-2,1.059207916E-1,1.787980050E-1
1.616590138E2,-1.419785619E-1,8.421516418E-2,2.881896496E-2
1.617590807E2,-1.032443047E-1,7.594585419E-2,-1.437445283E-1
1.618591428E2,-9.886312485E-2,8.768558502E-2,1.618447900E-2
1.619592091E2,-3.209877014E-2,6.806278229E-2,2.662554383E-2
1.620592763E2,1.565682888E-2,1.607704163E-2,3.011500835E-2
1.621593434E2,-1.232039928E-2,6.190967560E-2,1.557475477E-1
1.622594157E2,-9.467267990E-2,7.781219482E-2,-3.453934193E-2
1.623594831E2,-6.481236219E-2,5.501079559E-2,7.025843859E-2
1.624595503E2,-3.473842144E-2,8.582878113E-2,6.626158953E-3
1.625596122E2,7.726907730E-3,5.368804932E-2,6.096082926E-2
1.626596772E2,-3.091108799E-2,4.838371277E-2,7.775041461E-2
1.627597460E2,-1.657640934E-2,1.213264465E-1,-1.651858985E-1
1.628598130E2,-2.871716022E-2,5.181026459E-2,8.708310127E-2
1.629598823E2,-6.718778610E-2,7.053375244E-2,-6.030541658E-2
1.630599477E2,2.866625786E-2,4.734611511E-2,1.552208215E-1
1.631600150E2,-1.307052374E-1,3.778839111E-2,-1.003292501E-1
1.632600820E2,-8.231031895E-2,8.938789368E-2,-1.015138328E-1
1.633601492E2,5.770933628E-2,9.403610229E-2,-1.735419035E-3
1.634602161E2,-1.580600739E-1,8.491039276E-2,1.545339823E-3
1.635602832E2,-1.385953426E-1,1.091556549E-1,1.113111377E-1
1.636603489E2,-6.258273125E-2,3.744983673E-2,2.030181885E-2
1.637604162E2,4.219675064E-2,1.715183258E-2,-6.881245971E-2
1.638604836E2,-3.139257431E-2,8.292007446E-2,-9.558877349E-2
1.639605522E2,-7.470238209E-2,3.201866150E-2,1.898296028E-1
1.640606193E2,-1.858310103E-1,9.118556976E-2,4.720190167E-2
1.641606864E2,4.029667377E-2,5.149745941E-2,-1.587635279E-2
1.642607536E2,2.501726151E-2,1.492404938E-1,-1.341614127E-2
1.643608205E2,-1.608824730E-2,5.319309235E-2,5.688767135E-2
1.644608877E2,-1.735569239E-1,2.042770386E-2,1.833986044E-1
1.645609545E2,-6.705600023E-2,7.329368591E-2,-1.327443421E-1
1.646610231E2,-8.028995991E-2,7.393932343E-2,-1.878851652E-2
1.647610899E2,1.540327072E-2,5.842590332E-2,8.147475123E-2
1.648611570E2,-1.019500494E-1,6.156539917E-2,2.764336765E-2
1.649612227E2,-5.849432945E-2,9.426784515E-2,3.981763124E-2
1.650612901E2,-1.934778690E-2,7.939815521E-2,5.495445430E-2
1.651613576E2,1.056563854E-2,6.235599518E-2,3.535860777E-2
1.652614250E2,-4.681420326E-2,3.964614868E-2,-5.197283626E-2
1.653614922E2,-3.893077374E-2,7.633018494E-2,8.659544587E-2
1.654615593E2,-4.425132275E-2,3.889656067E-2,1.100165695E-1
1.655616257E2,-8.333778381E-2,1.159038544E-1,-1.671288610E-1
1.656616912E2,-1.685059071E-2,5.772113800E-2,-1.391846538E-1
1.657617581E2,-6.735789776E-2,3.483772278E-2,3.989836574E-2
1.658618259E2,-9.117126465E-2,6.612396240E-2,8.426788449E-2
1.659618942E2,-2.225220203E-2,7.907104492E-2,-2.651354671E-2
1.660619616E2,9.618043900E-3,6.884956360E-2,-2.659690380E-2
1.661620287E2,-1.387563348E-1,9.976100922E-2,-3.423330188E-2
1.662621016E2,1.221907139E-2,9.331703186E-2,-9.863620996E-2
1.663621688E2,3.490638733E-2,1.981258392E-2,9.669354558E-2
1.664622359E2,-5.207800865E-2,5.696773529E-2,8.094589412E-2
1.665622978E2,-1.848419905E-1,8.597373962E-2,2.403989434E-3
1.666623628E2,-8.908790350E-2,6.962108612E-2,9.563685954E-2
1.667624296E2,-2.698206902E-2,6.861019135E-2,1.226632223E-1
1.668624969E2,-3.535121679E-2,3.358840942E-2,-8.865091205E-2
1.669625666E2,-1.557923555E-1,1.528673172E-1,-2.062374651E-1
1.670626341E2,4.769146442E-2,9.303188324E-2,3.801934421E-2
1.671627010E2,-1.703644395E-1,7.234191895E-2,1.360633075E-1
1.672627678E2,-9.792029858E-3,8.344554901E-2,5.044424534E-2
1.673628350E2,-2.282856107E-1,1.276836395E-1,-3.169715405E-2
1.674630561E2,-7.943707705E-2,7.926177979E-2,3.745469451E-2
1.675631225E2,5.828154087E-2,4.953098297E-2,6.794662774E-2
1.676631876E2,-6.306254864E-2,5.248355865E-2,1.024246067E-1
1.677632558E2,6.520748138E-5,8.207702637E-2,-7.314185798E-2
1.678633237E2,-7.547581196E-2,7.473754883E-2,-6.903542578E-2
1.679633928E2,-6.996023655E-2,4.522132874E-2,1.608780026E-2
1.680634592E2,-1.494860649E-2,9.437561035E-2,-1.858636737E-2
1.681635263E2,-3.320401907E-2,1.099185944E-1,5.152204633E-2
1.682635979E2,-1.166839600E-1,1.061382294E-1,-9.795743227E-2
1.683636647E2,8.514046669E-3,7.748222351E-2,3.066414595E-2
1.684637318E2,-5.387300253E-2,6.417751312E-2,-1.079145074E-2
1.685637943E2,-3.094887733E-2,6.993293762E-2,1.887023449E-3
1.686638659E2,-3.597795963E-2,4.367828369E-2,-1.059922576E-2
1.687639330E2,-4.986512661E-2,7.608795166E-2,-1.982808113E-2
1.688640004E2,-2.112323046E-2,5.245399475E-2,5.974143744E-2
1.689640632E2,-5.059337616E-2,7.209300995E-2,1.526519656E-2
1.690641303E2,-5.409556627E-2,5.946636200E-2,1.359579861E-1
1.691641968E2,-2.021970749E-1,8.508014679E-2,1.019840837E-1
1.692642638E2,-9.752923250E-2,1.135826111E-1,-1.426933110E-1
1.693643307E2,3.455054760E-2,1.530361176E-2,1.612602770E-1
1.694643979E2,-7.039070129E-2,1.180496216E-1,1.686300337E-2
1.695644645E2,-1.327929497E-1,1.055021286E-1,8.572205901E-2
1.696645302E2,-1.025997996E-1,7.328319550E-2,-8.183827996E-2
1.697645980E2,-7.270652056E-2,7.484817505E-2,-1.141925752E-1
1.698646657E2,-8.664196730E-2,7.949447632E-2,2.820745111E-2
1.699647344E2,4.360967875E-2,4.179382324E-2,4.700627923E-2
1.700648015E2,-8.337229490E-2,9.000205994E-2,4.110337794E-2
1.701648687E2,-2.899467945E-2,5.743026733E-2,1.390910149E-1
1.702649356E2,-1.188334823E-1,6.341171265E-2,8.340165019E-3
1.703650028E2,-9.616047144E-2,9.427452087E-2,5.563020706E-3
1.704650699E2,-6.163895130E-3,-1.891231537E-2,9.026902914E-2
1.705651367E2,2.231848240E-2,3.278064728E-2,-4.866752028E-2
1.706652026E2,-8.042240143E-2,6.070232391E-2,-5.879074335E-2
1.707652694E2,-5.476379395E-2,7.708549500E-2,-8.783739805E-2
1.708653369E2,-3.471219540E-2,6.903839111E-2,-5.762997270E-2
1.709654052E2,-7.448512316E-2,7.465267181E-2,-2.975511551E-2
1.710654727E2,-3.603065014E-2,3.363132477E-2,9.147855639E-2
1.711655400E2,-1.198079586E-1,3.640460968E-2,1.336154342E-2
1.712656071E2,-5.544412136E-2,8.181571960E-3,9.079957008E-2
1.713656742E2,9.316086769E-3,7.113361359E-2,-5.796083808E-2
1.714657414E2,-1.079163551E-1,4.883098602E-2,1.186157614E-1
1.715658081E2,-2.235555649E-2,4.781246185E-2,7.228161395E-2
1.716658752E2,3.672325611E-2,6.558609009E-2,-1.297394633E-1
1.717659423E2,-1.453760862E-1,6.959533691E-2,-1.273232996E-1
1.718660100E2,-9.182447195E-2,2.745628357E-3,1.081377119E-1
1.719660772E2,-1.385188103E-2,2.140998840E-3,9.619639814E-2
1.720661443E2,6.560444832E-3,7.113456726E-2,6.537064910E-2
1.721662113E2,-7.367652655E-2,6.550788879E-2,1.071380526E-1
1.722662783E2,1.286637783E-2,6.488418579E-2,-6.398257613E-2
1.723663455E2,-4.821819067E-2,3.001785278E-2,7.638068497E-2
1.724664127E2,-1.084621549E-1,3.069496155E-2,-3.092287481E-2
1.725664792E2,-4.297471046E-2,7.667541504E-2,9.216235578E-2
1.726665518E2,4.857069254E-2,3.615951538E-2,5.600702763E-2
1.727666231E2,-1.653372049E-1,6.121444702E-2,5.084277689E-2
1.728666907E2,-2.671021223E-2,6.451511383E-2,6.797516346E-2
1.729667528E2,-2.545827627E-2,1.241416931E-1,-1.151203215E-1
1.730668165E2,-1.505879760E-1,8.426666260E-3,4.039922357E-2
1.731668838E2,-1.551582813E-1,4.467391968E-2,2.365157008E-2
1.732669502E2,7.734853029E-2,1.561737061E-2,1.823481917E-2
1.733670161E2,-3.751885891E-2,5.913066864E-2,-4.297390580E-2
1.734670832E2,-6.270802021E-2,1.011857986E-1,1.102830619E-1
1.735671501E2,-7.579034567E-2,9.244728088E-2,1.318597794E-2
1.736672164E2,-6.125533581E-2,6.218147278E-2,8.721214533E-2
1.737672835E2,-6.362813711E-2,3.761577606E-2,4.739451408E-2
1.738673519E2,-4.452329874E-2,6.640911102E-2,2.607655525E-2
1.739674205E2,-6.174564362E-3,9.095096588E-2,-7.720699906E-2
1.740674940E2,-7.913047075E-2,4.015731812E-2,-2.924633026E-2
1.741675605E2,-1.444232464E-2,4.601764679E-2,3.937382996E-2
1.742676278E2,-5.040335655E-2,4.964637756E-2,-4.305230081E-2
1.743676885E2,-4.836297035E-2,5.019187927E-2,3.789438307E-2
1.744677553E2,-7.002216578E-2,3.634548187E-2,2.561886609E-2
1.745678218E2,1.915991306E-2,5.644989014E-2,9.695678949E-3
1.746678880E2,-8.935058117E-2,6.364822388E-2,6.197509170E-2
1.747679554E2,-2.034711838E-2,3.669071198E-2,3.824861348E-2
1.748681402E2,-8.137971163E-2,7.453346252E-2,-5.946740508E-3
1.749682124E2,-2.654778957E-2,6.288337708E-2,2.749755979E-2
1.750682793E2,-6.011444330E-2,9.852027893E-2,1.300836354E-1
1.751683465E2,-5.717796087E-2,4.559993744E-2,-1.138550937E-1
1.752684091E2,-1.492130756E-2,4.416656494E-2,-9.584322572E-2
1.753684765E2,-7.588684559E-2,7.069206238E-2,-3.378820419E-2
1.754685436E2,-1.975924373E-1,4.308414459E-2,1.942811310E-1
1.755686108E2,8.226215839E-2,-1.646709442E-2,1.232667565E-1
1.756686778E2,-1.276683807E-2,5.464267731E-2,-2.174162865E-2
1.757687449E2,-1.464915872E-1,5.467224121E-2,1.420375705E-2
1.758688121E2,-6.329435110E-2,1.043691635E-1,-9.863808751E-2
1.759688793E2,-2.100241184E-2,4.214000702E-2,4.127557576E-2
1.760689467E2,-1.881253719E-2,4.860973358E-2,1.180405915E-2
1.761690145E2,-1.321792603E-3,8.302688599E-2,1.252649128E-1
1.762690818E2,-1.238098145E-1,8.365631104E-2,4.959198833E-2
1.763691483E2,3.975450993E-3,5.968952179E-2,-9.143576026E-3
1.764692151E2,-1.027451158E-1,6.123828888E-2,3.375554085E-2
1.765692816E2,-7.072746754E-2,5.149745941E-2,7.485805452E-2
1.766693484E2,-3.314781189E-2,4.309082031E-2,-3.601001203E-2
1.767694156E2,-7.202816010E-2,3.506565094E-2,2.842974663E-2
1.768694834E2,-6.744557619E-2,2.963066101E-2,1.347777247E-1
1.769695514E2,-8.182394505E-2,8.039379120E-2,-5.876949430E-2
1.770696185E2,-8.528810740E-2,6.859016418E-2,-1.143720746E-2
1.771696854E2,-6.555098295E-2,5.422115326E-2,1.998764277E-2
1.772697525E2,-7.928556204E-2,6.663036346E-2,-1.375269890E-2
1.773698197E2,-8.908563852E-2,4.992294312E-2,4.241856933E-2
1.774698871E2,-6.576359272E-3,8.394432068E-2,1.015269756E-2
1.775699563E2,-1.464189887E-1,5.310344696E-2,-2.915337682E-2
1.776700225E2,-7.445847988E-2,1.010637283E-1,6.001368165E-2
1.777700897E2,-6.430602074E-2,2.427291870E-2,1.918687969E-1
1.778701542E2,2.795761824E-2,2.450084686E-2,-5.144211650E-2
1.779702227E2,-5.137860775E-2,5.216789246E-2,-1.258512437E-1
1.780702898E2,-1.206732988E-1,-2.505207062E-2,1.765581369E-1
1.781703568E2,7.085174322E-2,1.072502136E-2,8.631838858E-2
1.782704233E2,-4.305261374E-2,8.807945251E-2,8.000615239E-2
1.783704904E2,-9.845983982E-2,5.643367767E-2,4.944682121E-3
1.784705578E2,-1.286203861E-1,6.833648682E-2,1.152677387E-1
1.785706244E2,7.226705551E-3,2.787208557E-2,3.041887283E-2
1.786706913E2,-3.747737408E-2,9.270858765E-2,1.362150908E-2
1.787707580E2,8.665585518E-2,7.574939728E-2,-7.005760074E-2
1.788708258E2,-4.795742035E-2,4.413986206E-2,-1.529842019E-1
1.789708937E2,-8.337509632E-2,4.921436310E-2,1.027543545E-1
1.790709605E2,-8.475959301E-2,3.418445587E-2,6.515812874E-2
1.791710293E2,5.870938301E-3,3.728675842E-2,-9.596779943E-2
1.792810357E2,4.453456402E-2,1.146793365E-1,-1.873761117E-1
1.793811032E2,-8.061671257E-2,8.195686340E-2,-6.314286590E-2
1.794811689E2,-9.361863136E-2,6.963443756E-2,5.540528893E-2
1.795813022E2,2.432644367E-2,5.261993408E-2,1.350478828E-1
1.796813693E2,-1.225085258E-1,8.393192291E-2,-5.015745759E-2
1.797814369E2,3.508448601E-2,3.600978851E-2,7.390975952E-4
1.798815041E2,-1.483749747E-1,8.808803558E-2,-2.554208040E-2
1.799815720E2,-7.781392336E-2,8.465003967E-2,2.690091729E-2
1.800816387E2,-1.556953788E-1,1.161546707E-1,6.290498376E-2
1.801817062E2,-1.481753588E-2,4.879093170E-2,-5.484357476E-2
1.802817727E2,-3.825134039E-2,4.791355133E-2,-4.045164585E-2
1.803818397E2,-3.200179338E-2,5.823993683E-2,1.389670968E-1
1.804819068E2,3.539276123E-2,5.724716187E-2,7.981300354E-2
1.805819727E2,-5.491447449E-2,7.691287994E-2,3.242412210E-2
1.806820397E2,-2.133422494E-1,7.422924042E-2,6.529098749E-2
1.807821075E2,-7.626050711E-2,2.919864655E-2,1.759565473E-1
1.808821761E2,4.932045937E-2,6.437397003E-2,-3.105071187E-2
1.809822435E2,-7.295960188E-2,7.246398926E-2,-1.985913515E-1
1.810823103E2,-1.315644979E-1,1.000185013E-1,-1.021254957E-1
1.811823781E2,-4.787456989E-2,-1.310825348E-2,2.112511098E-1
1.812824453E2,8.538883924E-2,-4.989624023E-3,1.274622381E-1
1.813825178E2,-4.781883955E-2,3.641510010E-2,1.641803980E-2
1.814825856E2,-6.659626961E-2,9.868812561E-2,-1.030608118E-1
1.815826518E2,-6.090575457E-2,5.043983459E-2,-2.718868852E-2
1.816827133E2,-5.215883255E-3,6.633472443E-2,-3.999054432E-2
1.817827791E2,-6.694746017E-2,9.656047821E-2,3.443557024E-2
1.818828476E2,-8.328986168E-2,4.347705841E-2,-1.239871979E-2
1.819829150E2,-3.148174286E-2,4.115486145E-2,8.113476634E-2
1.820829822E2,-7.125973701E-2,4.940223694E-2,4.665732384E-2
1.821830487E2,-2.707648277E-2,9.960651398E-2,-4.087379575E-2
1.822833083E2,-4.545259476E-2,8.634471893E-2,-9.239599109E-2
1.823833809E2,-1.430037022E-1,3.656387329E-2,2.029600590E-1
1.824834483E2,6.388783455E-3,4.217338562E-2,1.511871815E-2
1.825835118E2,-5.228185654E-2,6.526756287E-2,-1.221073866E-1
1.826835731E2,-5.122256279E-2,1.042680740E-1,-3.775060177E-2
1.827836405E2,-7.232737541E-2,7.254981995E-2,-1.286834478E-3
1.828837085E2,-1.034737825E-1,6.409072876E-2,3.705877066E-2
1.829837759E2,-1.051605940E-1,2.477264404E-2,1.719722152E-2
1.830838426E2,4.710221291E-2,6.875801086E-2,-1.146954000E-1
1.831839097E2,-5.329954624E-2,4.388141632E-2,-1.024806499E-2
1.832839769E2,-7.060945034E-2,1.004657745E-1,1.548779011E-2
1.833840442E2,-1.681128144E-1,1.072120667E-1,-7.764995098E-3
1.834841114E2,6.420898438E-2,-2.197170258E-2,1.575449258E-1
1.835841777E2,-6.851905584E-2,5.196571350E-2,1.008847952E-1
1.836842448E2,-1.737690568E-1,1.225194931E-1,-6.169313192E-2
1.837843136E2,-8.412170410E-2,1.306152344E-2,2.516304851E-1
1.838843814E2,6.854748726E-2,1.144657135E-1,-1.296878755E-1
1.839844484E2,-1.645964980E-1,1.076135635E-1,-2.277093828E-1
1.840845137E2,-8.033025265E-2,3.612613678E-2,6.419494748E-2
1.841845809E2,1.376669407E-1,-2.676868439E-2,1.447992921E-1
1.842846482E2,-9.085130692E-2,2.432823181E-2,1.291948259E-1
1.843847151E2,-5.937832594E-2,7.013034821E-2,-1.269930005E-1
1.844847826E2,-1.218056679E-1,9.854030609E-2,-7.906442881E-2
1.845848487E2,-1.670956612E-2,4.813575745E-2,6.521302462E-2
1.846849160E2,-9.435772896E-3,5.846977234E-2,3.908291459E-2
1.847849839E2,-1.537625790E-1,5.678558350E-2,6.388485432E-3
1.848850520E2,-4.813671112E-2,1.020154953E-1,-3.383171558E-2
1.849851190E2,2.829873562E-2,3.410720825E-2,-4.076388478E-2
1.850851853E2,-9.323251247E-2,8.561420441E-2,-7.343906164E-2
1.851852521E2,-2.421593666E-2,7.527160645E-2,8.270570636E-2
1.852853195E2,-1.725085378E-1,6.601428986E-2,7.353350520E-2
1.853853865E2,8.610916138E-2,1.078433990E-1,-2.357778251E-1
1.854854539E2,1.404500008E-2,4.205799103E-2,7.308796048E-2
1.855855198E2,-1.207609177E-1,5.951213837E-2,7.755240798E-2
1.856855877E2,3.454685211E-4,8.308792114E-2,7.928401232E-3
1.857856550E2,-9.750723839E-3,7.189083099E-2,-5.571752787E-3
1.858857234E2,-1.302258968E-1,3.896617889E-2,8.207401633E-2
1.859857943E2,-3.921270370E-2,6.238365173E-2,2.804198861E-2
1.860858611E2,-4.742026329E-3,6.296634674E-2,1.329055429E-2
1.861859282E2,-7.872712612E-2,6.990337372E-2,4.605543613E-2
1.862859915E2,-2.265191078E-2,6.504917145E-2,-1.942840219E-2
1.863860589E2,-1.396830678E-1,9.132957458E-2,7.971701026E-2
1.864861258E2,5.118048191E-2,6.154537201E-2,-1.169057488E-1
1.865861915E2,-8.686065674E-3,1.330089569E-1,-1.057481468E-1
1.866862574E2,-1.241631508E-1,9.738445282E-2,-1.902276278E-2
1.867863248E2,-1.077218056E-1,6.659507751E-2,8.952489495E-2
1.868863929E2,-7.302165031E-3,8.088970184E-2,-3.962570429E-2
1.869864676E2,-6.743693352E-2,8.766460419E-2,2.202931046E-2
1.870865345E2,-1.444816589E-2,4.744434357E-2,4.867106676E-2
1.871866023E2,-9.384179115E-2,4.309558868E-2,5.317863822E-2
1.872866638E2,-2.380931377E-2,6.759452820E-2,6.575477123E-2
1.873867311E2,-9.345847368E-2,7.073688507E-2,3.002130985E-2
1.874867969E2,-3.540045023E-2,9.115028381E-2,-1.046806574E-2
1.875868622E2,2.066433430E-2,4.329586029E-2,7.515013218E-2
1.876869282E2,-4.436039925E-2,4.293155670E-2,-1.032215357E-2
1.877869959E2,-1.138882637E-1,4.887199402E-2,6.494954228E-2
1.878870644E2,-5.602419376E-3,5.541706085E-2,-1.054430306E-1
1.879871326E2,-4.203939438E-2,1.222572327E-1,-7.578957081E-2
1.880871997E2,-1.311452389E-1,6.573390961E-2,-4.732728004E-2
1.881872667E2,-1.845949888E-2,4.914569855E-2,-3.009259701E-2
1.882873345E2,1.112776995E-2,5.887413025E-2,-7.079195976E-2
1.883874082E2,7.432520390E-3,8.380794525E-2,-1.002472341E-1
1.884874752E2,-7.648152113E-2,3.068542480E-2,7.185995579E-2
1.885875407E2,-1.408432722E-1,9.174156189E-2,1.536130905E-3
1.886876007E2,5.447947979E-2,2.492618561E-2,1.593243629E-1
1.887876677E2,6.039309502E-2,3.540706635E-2,-2.137750387E-2
1.888877361E2,-1.679571867E-1,5.973625183E-2,1.890522242E-2
1.889878039E2,-4.211491346E-2,1.033220291E-1,-1.182115078E-1
1.890878712E2,-3.819793463E-2,7.899951935E-2,-2.860572934E-2
1.891879380E2,-9.324669838E-3,4.387378693E-2,3.442111611E-2
1.892880052E2,-1.051716805E-1,8.992862701E-2,8.961260319E-3
1.893880723E2,-3.959703445E-2,5.474853516E-2,8.894984424E-2
1.894881421E2,-4.029631615E-2,1.105308533E-2,4.828572273E-2
1.895882079E2,8.821487427E-6,4.673194885E-2,-3.087502718E-2
1.896882924E2,-1.327975988E-1,8.647155762E-2,1.696360111E-2
1.897883577E2,-1.029455662E-2,5.247879028E-2,2.057966590E-2
1.898884257E2,-2.696764469E-2,7.087326050E-2,1.874780655E-2
1.899884943E2,3.117096424E-2,8.508872986E-2,1.120522916E-1
1.900885607E2,-2.402314544E-1,9.145832062E-2,1.355332136E-2
1.901886324E2,5.727732182E-2,3.386497498E-3,-2.702755332E-1
1.902886991E2,5.165541172E-2,1.129407883E-1,-1.387888193E-1
1.903887662E2,-1.107962132E-1,7.721996307E-2,1.261823475E-1
1.904888301E2,-1.299570203E-1,4.581451416E-2,7.444149256E-2
1.905888964E2,-5.758416653E-2,8.117103577E-2,-1.384112835E-1
1.906889623E2,-6.347441673E-2,3.199005127E-2,6.146532297E-2
1.907890285E2,-8.159637451E-3,9.826660156E-2,7.241708040E-2
1.908890965E2,-8.377182484E-2,7.006645203E-2,9.991559386E-2
1.909891652E2,-3.306710720E-2,4.050445557E-2,-8.890259266E-2
1.910892335E2,-1.301664114E-1,7.475471497E-2,-1.128961146E-1
1.911893008E2,-5.219233036E-2,3.700542450E-2,5.483862758E-2
1.912893672E2,2.392554283E-2,1.064310074E-1,-6.069859862E-2
1.913894332E2,-7.747387886E-2,7.463550568E-2,9.927082062E-2
1.914895004E2,-4.102158546E-2,3.775596619E-2,-1.245632768E-2
1.915895666E2,-1.953244209E-2,4.915523529E-2,1.222159266E-1
1.916896352E2,-5.314564705E-2,7.321548462E-2,4.556328058E-3
1.917897022E2,-3.034532070E-2,5.335521698E-2,2.737057209E-2
1.918897706E2,-2.910852432E-2,2.971458435E-2,1.232297719E-1
1.919898363E2,-4.356920719E-2,7.320308685E-2,1.897239685E-2
1.920899034E2,-8.368694782E-2,7.413291931E-2,-6.598702073E-2
1.921899706E2,-2.597260475E-2,7.224273682E-2,2.592793107E-2
1.922900374E2,-1.365695000E-1,6.055259705E-2,6.918397546E-2
1.923901045E2,6.413340569E-3,5.876445770E-2,-5.207014084E-2
1.924901719E2,-4.148232937E-2,5.696582794E-2,-4.587411880E-2
1.925902386E2,-1.987862587E-2,5.941295624E-2,-8.562821150E-2
1.926903046E2,-5.211222172E-2,7.076454163E-2,4.476118088E-2
1.927903779E2,2.343654633E-2,7.446575165E-2,-2.454370260E-2
1.928904455E2,-1.350462437E-1,6.289672852E-2,2.166475654E-1
1.929905139E2,-1.048532128E-1,9.352970123E-2,-5.117508769E-2
1.930905805E2,-5.970573425E-2,1.003017426E-1,-5.557802320E-2
1.931906479E2,-3.347086906E-2,6.116294861E-2,1.673954725E-2
1.932907150E2,-8.519619703E-2,8.649921417E-2,6.996425986E-2
1.933907763E2,-9.152513742E-2,5.486297607E-2,3.704565763E-2
1.934908435E2,2.959597111E-2,6.405925751E-2,3.347769380E-2
1.935909097E2,-1.855003834E-2,4.425907135E-2,-4.796141386E-2
1.936909755E2,-1.175363660E-1,7.099723816E-2,4.883906245E-2
1.937910428E2,-1.343023181E-1,7.826805115E-2,-1.808720827E-2
1.938911109E2,4.453909397E-2,1.269817352E-2,-2.668303251E-2
1.939911794E2,-1.096047759E-1,5.694389343E-2,5.891403556E-2
1.940912458E2,-1.254123449E-1,8.190822601E-2,-6.267517805E-3
1.941913128E2,-1.292419434E-2,3.632450104E-2,7.279992104E-3
1.942913801E2,-3.335714340E-2,6.784725189E-2,1.458876729E-1
1.943914478E2,-1.475110650E-1,8.323574066E-2,-1.575157046E-2
1.944915152E2,-7.405281067E-3,4.125976562E-2,-1.209450364E-1
1.945915814E2,-1.144867539E-1,3.812313080E-2,-9.145024419E-2
1.946916474E2,-4.949593544E-2,9.522438049E-3,1.822781861E-1
1.947917144E2,9.165859222E-2,1.467895508E-2,9.814983606E-2
1.948917824E2,-6.669330597E-2,7.247829437E-2,3.706881404E-2
1.949918508E2,-1.198719144E-1,1.138210297E-1,-1.278659403E-1
1.950919181E2,-1.116113067E-1,2.075672150E-2,7.722169161E-2
1.951919852E2,-6.290960312E-2,3.847980499E-2,2.549123764E-2
1.952920523E2,6.532752514E-2,6.641101837E-2,-1.161959767E-2
1.953921189E2,-6.938135624E-2,7.444381714E-2,-4.599782825E-2
1.954921861E2,-1.176692247E-1,9.085941315E-2,1.012934744E-1
1.955922521E2,-6.031143665E-2,5.002593994E-2,1.407086700E-1
1.956923186E2,-3.786873817E-2,-2.602386475E-2,-9.253442287E-3
1.957923858E2,-3.740882874E-2,2.402973175E-2,-6.171545386E-2
1.958924541E2,8.079051971E-3,7.848548889E-2,-1.107859910E-1
1.959925221E2,-9.689092636E-2,1.120634079E-1,7.837992907E-2
1.960925892E2,-3.935575485E-2,-2.480506897E-3,8.670884371E-2
1.961926564E2,-1.236438751E-3,7.094669342E-2,-1.699396968E-2
1.962927235E2,-4.410469532E-2,7.513046265E-2,7.601028681E-2
1.963927917E2,-8.550202847E-2,6.671714783E-2,-8.737146854E-3
1.964928587E2,5.883693695E-3,4.925155640E-2,-1.290307343E-1
1.965929247E2,-4.159128666E-2,2.152442932E-2,1.933516711E-1
1.966929895E2,-1.299231648E-1,3.055858612E-2,9.818185866E-2
1.967930570E2,-1.515851021E-1,9.364700317E-2,-1.045278609E-1
1.968931258E2,-5.205506086E-2,6.822872162E-2,-1.014375687E-2
1.969933164E2,-1.011362672E-1,3.860092163E-2,2.126958221E-1
1.970933839E2,6.812453270E-3,4.645538330E-2,2.296811342E-2
1.971934508E2,-1.099880934E-1,5.617141724E-2,-1.231141686E-1
1.972935179E2,-1.025112271E-1,5.053234100E-2,-7.350084186E-2
1.973935843E2,-5.678015947E-2,5.083656311E-2,-5.363500118E-2
1.974936514E2,8.364850283E-2,-3.529548645E-3,2.405574322E-1
1.975937173E2,1.279819012E-2,3.586483002E-2,9.386913478E-2
1.976937834E2,-1.450489163E-1,6.242561340E-2,-1.715848744E-1
1.977938504E2,-1.614999771E-2,7.637310028E-2,-3.604176641E-2
1.978939189E2,-2.913051844E-2,8.498382568E-2,1.378051639E-1
1.979939872E2,-6.826049089E-2,7.402420044E-3,1.904722303E-1
1.980940544E2,-1.286089420E-1,1.008472443E-1,-2.827187479E-1
1.981941215E2,-6.759619713E-2,7.837104797E-2,-8.179777861E-2
1.982941886E2,6.483089924E-2,1.362314224E-1,-3.892213106E-2
1.983942558E2,3.981137276E-2,1.294746399E-1,-1.057711542E-1
1.984943229E2,-1.685116291E-1,5.732727051E-2,1.301157176E-1
1.985943900E2,-8.423233032E-2,7.402515411E-2,-3.479856253E-2
1.986944556E2,-8.606350422E-2,7.138061523E-2,5.820122361E-2
1.987945227E2,-3.782415390E-2,7.921314240E-2,6.522887945E-2
1.988945899E2,2.451920509E-2,5.843925476E-2,-2.845621109E-2
1.989946585E2,1.775264740E-3,6.816196442E-2,-2.924445271E-2
