"Time (s)","Acceleration x (m/s^2)","Acceleration y (m/s^2)","Acceleration z (m/s^2)"
3.541665010E-1,1.046298146E0,9.759063721E0,8.164477348E-1
4.542313520E-1,9.289786220E-1,1.006313705E1,7.685621977E-1
5.542992020E-1,4.597007632E-1,9.110215187E0,1.201925993E0
6.543647830E-1,1.391073704E0,9.198803902E0,8.571503758E-1
7.544287630E-1,8.691217303E-1,1.000567436E1,1.312062621E0
8.545018840E-1,1.307274103E0,1.082212257E1,1.369525194E0
9.545646670E-1,1.350371003E0,9.591464996E0,1.355159521E0
1.054635882E0,1.477267504E0,9.115004539E0,8.954587579E-1
1.154700097E0,1.290514112E0,9.902720451E0,1.012778282E0
1.254761445E0,1.668809533E0,9.921875000E0,5.554717779E-1
1.354841063E0,1.340793848E0,9.538790703E0,1.060663700E0
1.454920608E0,5.842030644E-1,1.027143860E1,1.149251938E0
1.554975689E0,1.450930476E0,9.531607628E0,1.316851079E-1
1.655046036E0,8.068706393E-1,1.003680038E1,7.996878028E-1
1.755106485E0,1.594586968E0,1.038397026E1,5.985686779E-1
1.855180534E0,1.264177084E0,9.162889481E0,1.513181686E0
1.955240849E0,4.764606953E-1,1.076705360E1,3.088614643E-1
2.055308398E0,1.498816013E0,9.919480324E0,9.816526622E-2
2.155379316E0,1.103760719E0,9.083878517E0,9.672870040E-1
2.255439897E0,1.292908341E-1,1.044143200E1,1.391073704E0
2.355504845E0,2.753416002E-1,1.025946712E1,6.680026650E-1
2.455574195E0,4.357580245E-1,1.016369629E1,1.015172482E0
2.555648642E0,1.264177084E0,9.131764412E0,1.079817891E0
2.655708858E0,4.501236677E-1,1.020200539E1,1.625712633E0
2.755773509E0,8.212362528E-1,9.917086601E0,2.106961727E0
2.855844859E0,9.744698405E-1,9.505270958E0,1.410227895E0
2.955911774E0,4.237866402E-1,9.325700760E0,1.965699673E0
3.055978255E0,1.316851079E-1,1.029298782E1,2.162030220E0
3.156050404E0,7.781392932E-1,9.670475960E0,6.727912426E-1
3.256105256E0,1.000806928E0,8.729525566E0,2.887495518E0
3.356179239E0,1.999219418E0,1.033129597E1,1.290514112E0
3.456259289E0,8.212362528E-1,8.997684479E0,1.055875182E0
3.556316536E0,3.952947617E0,1.216291618E1,5.458946824E-1
3.656375451E0,-5.506832153E-2,5.537957668E0,3.160442710E-1
3.756460398E0,2.025556564E0,1.087719059E1,1.613741279E0
3.856510713E0,1.108549237E0,8.772623062E0,3.234665155E0
3.956590362E0,2.164424419E0,1.112619495E1,2.638490915E0
4.056644411E0,1.766974807E0,7.609005451E0,1.577827096E0
4.156726493E0,1.865140080E0,9.845257759E0,1.731060743E0
4.256776108E0,1.628106833E0,9.988914490E0,2.351177931E0
4.357812651E0,1.163617611E0,9.016839027E0,1.987248063E0
4.457876032E0,2.030344963E0,9.378374100E0,1.814860344E0
4.557949312E0,1.520364523E0,9.814132690E0,1.810071707E0
4.658014731E0,1.721483588E0,1.018763924E1,1.460507631E0
4.758077314E0,3.471698463E-1,8.406298637E0,7.182824612E-1
4.858143162E0,1.264177084E0,1.115492630E1,9.002473354E-1
4.958208177E0,1.771763325E0,9.933846474E0,2.291321039E0
5.058275159E0,2.322446555E-1,7.060716629E0,1.786128998E0
5.158341574E0,1.192348838E0,1.165772438E1,2.116539001E0
5.258411057E0,1.130097747E0,8.545166969E0,2.284138203E0
5.358478879E0,5.411061049E-1,9.548367500E0,2.152452946E0
5.458541492E0,6.273000240E-1,9.514847755E0,2.782147408E0
5.558615508E0,1.189954638E0,1.049650097E1,2.346389294E0
5.658676787E0,9.170072675E-1,8.341653824E0,2.336812258E0
5.758749168E0,3.806896806E-1,1.043664360E1,2.353572130E0
5.858810482E0,1.879505754E0,1.012538815E1,1.206714511E0
5.958879295E0,1.666415215E0,9.028810501E0,1.273754239E0
6.058944442E0,1.680780888E0,9.670475960E0,1.132491946E0
6.159012222E0,3.232271075E-1,9.337671280E0,1.702329397E0
6.259075571E0,2.303292274E0,1.026186180E1,1.345582485E0
6.359144353E0,2.236252785E0,9.751881599E0,1.010383964E0
6.459235601E0,2.039922237E0,9.483722687E0,1.264177084E0
6.559281650E0,1.719089270E0,9.890748978E0,1.383890867E0
6.659352966E0,7.302538157E-1,9.167677879E0,2.231464148E0
6.759420182E0,1.448536277E0,9.809344292E0,2.664827824E0
6.859482331E0,9.361614585E-1,9.644139290E0,2.482862949E0
6.959552613E0,1.429382086E0,9.957788467E0,1.283331275E0
7.059619426E0,1.285725594E0,8.509252548E0,2.312869549E0
7.159684776E0,1.472478986E0,1.121717739E1,1.168406129E0
7.259754792E0,5.985686779E-1,8.593051910E0,9.768640995E-1
7.359824843E0,1.731060743E0,1.022355366E1,1.429382086E0
7.459887265E0,1.328822494E0,9.938634872E0,1.623318315E0
7.559953949E0,7.254652381E-1,8.808537483E0,1.170800328E0
7.660024031E0,9.529213905E-1,9.653716087E0,1.288119793E0
7.760093114E0,1.755003452E0,1.014214802E1,1.553884387E0
7.860159194E0,1.479661822E0,9.131764412E0,1.632895470E0
7.960220543E0,1.963305354E0,1.088676739E1,1.800494671E0
8.060293422E0,1.790917516E0,9.225140572E0,1.130097747E0
8.160355603E0,1.276148438E0,9.718361855E0,1.180377483E0
8.260420184E0,1.793311834E0,9.117398262E0,9.481328130E-1
8.360487833E0,1.848380208E0,1.008229160E1,1.443747759E0
8.460560781E0,1.446141958E0,9.615407944E0,1.333611012E0
8.560628396E0,1.472478986E0,9.318517685E0,1.089395046E0
8.660689943E0,1.482056141E0,9.960183144E0,1.240234375E0
8.760755757E0,1.362342358E0,9.040781975E0,1.426987767E0
8.860825538E0,9.888355136E-1,1.019482231E1,1.850774407E0
8.960892118E0,1.024749637E0,9.938634872E0,1.517970204E0
9.060976032E0,8.571503758E-1,9.457385063E0,1.831620216E0
9.161030946E0,7.374366522E-1,9.383162498E0,1.158828974E0
9.261091861E0,1.029538155E0,1.015172482E1,7.733507752E-1
9.361159713E0,4.836435020E-1,9.668081284E0,7.637736797E-1
9.461234865E0,1.122914910E0,9.593858719E0,1.522758722E0
9.561305814E0,8.116591573E-1,9.629773140E0,1.393467903E0
9.661360865E0,1.999219418E0,1.069283104E1,1.256994247E0
9.761429181E0,4.812492430E-1,8.786988258E0,1.292908430E0
9.861495894E0,9.026415944E-1,1.008468533E1,1.675992370E0
9.961566740E0,2.114144564E0,1.040551853E1,9.385557175E-1
1.006162996E1,1.656838179E0,8.947404861E0,1.324033976E0
1.016170394E1,1.951334000E0,9.088666916E0,1.146857619E0
1.026176172E1,1.182771802E0,9.483722687E0,1.604164124E0
1.036184377E1,1.738243461E0,9.715967178E0,8.571503758E-1
1.046190398E1,1.494027495E0,9.191620827E0,9.122186899E-1
1.056197310E1,1.831620216E0,9.902720451E0,1.903448462E0
1.066203945E1,1.415016413E0,9.684841156E0,1.156434774E0
1.076209910E1,1.333611012E0,9.294574738E0,2.032739401E0
1.086217377E1,1.453324795E0,9.320911407E0,1.000806928E0
1.096223409E1,2.633702382E-2,1.015890789E1,1.783734679E0
1.106230630E1,1.795706153E-1,1.036721039E1,4.860377908E-1
1.116237582E1,1.046298146E0,9.277814865E0,1.197137386E-1
1.126244163E1,1.036720991E0,8.763046265E0,1.721483588E0
1.136251038E1,3.399870098E-1,9.541185379E0,1.046298146E0
1.146257173E1,1.240234375E0,1.067367744E1,9.936240315E-1
1.156263638E1,7.254652381E-1,9.538790703E0,9.888355136E-1
1.166270426E1,5.123748183E-1,9.170072556E0,1.628106833E0
1.176288659E1,1.051086664E0,1.143745041E1,8.236305118E-1
1.186295381E1,1.587404251E0,8.482915878E0,1.704723716E0
1.196302126E1,1.970488191E0,9.842864037E0,5.411061049E-1
1.206309114E1,1.316851139E0,8.956981659E0,1.058269501E0
1.216315482E1,2.078230619E0,1.120281219E1,1.106154919E0
1.226322967E1,9.936240315E-1,8.451789856E0,7.757450342E-1
1.236329471E1,1.568249941E0,1.159547329E1,1.726272106E0
1.246335750E1,1.915419817E0,8.262641907E0,1.158828974E0
1.256342391E1,1.944151163E0,9.605830193E0,1.704723716E0
1.266348786E1,1.716695070E0,1.087240219E1,1.132491946E0
1.276355631E1,7.422251701E-1,9.383162498E0,2.013585091E0
1.286362399E1,1.151646137E0,9.909903526E0,9.624984860E-1
1.296369407E1,1.369525194E0,1.041270161E1,1.223474383E0
1.306375989E1,8.427847624E-1,9.914691925E0,1.000806928E0
1.316382684E1,1.146857619E0,1.052283764E1,1.637683988E0
1.326390192E1,9.433442950E-1,8.976136208E0,2.006402254E0
1.336396400E1,9.984126091E-1,1.014933109E1,1.379102230E0
1.346402882E1,9.648927450E-1,9.263449669E0,1.568249941E0
1.356410333E1,1.340793848E0,8.724737167E0,2.205127001E0
1.366415575E1,1.371919513E0,1.026904488E1,1.867534399E0
1.376422890E1,1.699935079E0,1.040791225E1,5.363175869E-1
1.386429652E1,1.551490068E0,9.375980377E0,3.950553536E-1
1.396436480E1,2.341600657E0,8.121379852E0,1.292908430E0
1.406443008E1,2.784541607E0,1.396580505E1,-4.980091453E-1
1.416450276E1,1.177983165E0,5.669642925E0,1.965699673E0
1.426456737E1,2.693559170E0,9.799766541E0,1.340793967E-1
1.436463462E1,1.549095750E0,1.110464668E1,2.176395893E0
1.446470144E1,1.537124395E0,1.145660496E1,1.173194647E0
1.456477362E1,7.398309112E-1,7.043956280E0,4.812492430E-1
1.466483340E1,3.055094719E0,1.020918751E1,2.724684715E0
1.476489878E1,1.426987767E0,1.116210938E1,7.972934842E-1
1.486497030E1,6.560313106E-1,9.620196342E0,1.632895470E0
1.496504238E1,1.007989645E0,8.363202095E0,1.170800328E0
1.506510369E1,7.158881426E-1,1.364257812E1,4.477293789E-1
1.516516851E1,7.518022656E-1,7.704776287E0,1.249811411E0
1.526523939E1,7.781392932E-1,9.866806030E0,7.565908432E-1
1.536530471E1,1.297696948E0,1.004158878E1,1.331216812E0
1.546537132E1,1.953728199E0,1.118605232E1,1.948939681E0
1.556544190E1,1.371919513E0,8.016032219E0,1.508393139E-1
1.566550365E1,7.374366522E-1,1.111901188E1,8.930644989E-1
1.576558483E1,1.745426297E0,9.263449669E0,9.098244309E-1
1.586564408E1,2.774964571E0,1.209587669E1,2.121327400E0
1.596571113E1,1.256994247E0,7.984906673E0,7.158881426E-1
1.606577544E1,1.936968327E0,9.644139290E0,2.015979290E0
1.616584556E1,1.786128998E0,8.746285439E0,1.043903828E0
1.626591191E1,1.249811411E0,1.007750225E1,8.475732803E-1
1.636597639E1,2.063864946E0,1.012059975E1,3.064671755E-1
1.646604244E1,1.206714511E0,8.542772293E0,5.147690773E-1
1.656611529E1,1.721483588E0,8.693612099E0,4.429408312E-1
1.666617750E1,1.039115310E0,1.123872566E1,7.589851022E-1
1.676625162E1,7.398309112E-1,8.389538765E0,2.662433624E0
1.686631550E1,1.309668303E0,9.708784103E0,1.177983165E0
1.696638415E1,6.033572555E-1,1.203362560E1,-3.397475958E0
1.706644436E1,-4.573064744E-1,8.320104599E0,-4.429408312E-1
1.716651554E1,8.044763207E-1,8.566715240E0,1.412622094E0
1.726658326E1,1.527547359E0,1.173194695E1,2.873129845E-1
1.736664581E1,4.668835998E-1,9.344854355E0,1.019961119E0
1.746671869E1,1.312062621E0,8.554743767E0,3.653663397E0
1.756678044E1,2.329629421E0,1.164096451E1,1.927391171E0
1.766684679E1,1.529941559E0,1.054917526E1,1.671203852E0
1.776692264E1,9.601042271E-1,5.621757030E0,9.265843630E-1
1.786698849E1,1.944151163E0,1.165293503E1,6.847625971E-1
1.796704993E1,1.259388566E0,1.036960411E1,1.048692346E0
1.806711978E1,1.426987767E0,8.262641907E0,9.241901040E-1
1.816718810E1,2.135693073E0,1.010383987E1,1.309668303E0
1.826725114E1,1.151646137E0,1.113577175E1,1.230657220E0
1.836732359E1,4.908263385E-1,9.158101082E0,1.127703428E0
1.846738314E1,7.805336118E-1,9.701601982E0,1.113337755E0
1.856745625E1,7.805336118E-1,1.020679379E1,6.727912426E-1
1.866751183E1,8.954587579E-1,1.034087276E1,7.206767201E-1
1.876758245E1,8.332076073E-1,9.524425507E0,9.816526771E-1
1.886765996E1,7.685621977E-1,9.620196342E0,0.000000000E0
1.896772028E1,8.188419938E-1,1.003440571E1,1.110943556E0
1.906778566E1,9.912297726E-1,9.550762177E0,3.663240373E-1
1.916785614E1,1.115732074E0,9.378374100E0,1.082212210E0
1.926792012E1,1.405439258E0,1.036721039E1,2.197944164E0
1.936799244E1,1.936968327E0,9.536396980E0,7.948992252E-1
1.946807102E1,2.387091875E0,1.058987713E1,2.202732861E-1
1.956812740E1,1.302485466E0,8.566715240E0,9.624984860E-1
1.966819294E1,1.266571403E0,1.056832886E1,1.635289669E0
1.976825346E1,2.542719841E0,9.684841156E0,1.513181686E0
1.986832471E1,1.290514112E0,8.696005821E0,2.944957912E-1
1.996839796E1,1.987248063E0,9.555550575E0,1.010383964E0
2.006845884E1,1.924996972E0,1.093944168E1,2.226675510E0
2.016853045E1,1.280937076E0,8.782199860E0,2.094990492E0
2.026859743E1,1.484450340E0,9.842864037E0,1.556278586E0
2.036866842E1,5.411061049E-1,9.112609863E0,7.182824612E-1
2.046872903E1,1.963305324E-1,1.023791885E1,1.728666425E0
2.056879208E1,1.005595446E0,9.577098846E0,4.597007632E-1
2.066885263E1,9.050358534E-1,9.478934288E0,9.217957854E-1
2.076892534E1,8.786988258E-1,1.107352066E1,4.620950520E-1
2.086899556E1,6.560313106E-1,8.887548447E0,1.625712633E0
2.096906205E1,8.260248303E-1,9.567522049E0,3.026363373E0
2.106913407E1,6.727912426E-1,9.703995705E0,1.223474383E0
2.116919832E1,1.795706153E0,1.015411949E1,2.339206457E0
2.126926230E1,2.042316437E0,7.616188049E0,8.810931444E-1
2.136932888E1,2.039922237E0,9.771035194E0,1.134886265E0
2.146940046E1,2.073441982E0,1.038397026E1,1.441353440E0
2.156946371E1,1.544307232E0,9.390345573E0,-8.858817071E-2
2.166952449E1,1.501210332E0,9.203592300E0,-1.915419847E-2
2.176960031E1,1.436564922E0,1.045100975E1,5.937801600E-1
2.186967349E1,1.936968327E0,9.866806030E0,7.637736797E-1
2.196974127E1,1.098972082E0,9.301757812E0,1.197137386E-1
2.206980019E1,1.300091267E0,9.447808266E0,8.092648983E-1
2.216986733E1,1.288119793E0,1.004637718E1,5.578660369E-1
2.226993518E1,1.989642382E0,9.981731415E0,2.657645047E-1
2.237000080E1,1.328822494E0,9.385557175E0,2.394274808E-3
2.247006981E1,1.101366401E0,9.320911407E0,1.046298146E0
2.257014076E1,1.956122518E0,1.053959751E1,4.166038036E-1
2.267019558E1,1.264177084E0,9.117398262E0,1.381496549E0
2.277026709E1,1.848380208E0,1.004637718E1,9.672870040E-1
2.287033964E1,1.766974807E0,9.399923325E0,8.403904438E-1
2.297040426E1,1.403045058E0,1.009186840E1,6.871568561E-1
2.307047161E1,1.228263021E0,9.912297249E0,1.007989645E0
2.317053992E1,1.273754239E0,9.141341209E0,4.405465722E-1
2.327060570E1,1.501210332E0,9.735121727E0,2.370332032E-1
2.337067185E1,1.324033976E0,1.101845264E1,4.022381604E-1
2.347074640E1,1.177983165E0,8.854028702E0,2.418217510E-1
2.357081929E1,1.019961119E0,1.058269501E1,-2.633702159E-1
2.367087244E1,1.446141958E0,9.543579102E0,6.943397224E-2
2.377094623E1,1.477267504E0,1.029538155E1,4.980091453E-1
2.387101361E1,1.781340480E0,9.469356537E0,4.788549542E-1
2.397107899E1,1.386285067E0,9.893143654E0,1.070240855E0
2.407114900E1,1.963305354E0,9.857229233E0,1.505998850E0
2.417120799E1,1.699935079E0,1.015411949E1,1.802888989E0
2.427127660E1,1.221080184E0,8.765439987E0,-7.661679387E-2
2.437134618E1,2.178790092E0,1.032411289E1,2.159635782E0
2.447141416E1,6.560313106E-1,1.082691097E1,-6.943397224E-2
2.457148121E1,1.091789365E0,8.166871071E0,1.235445857E0
2.467153689E1,1.254600048E0,1.020200539E1,5.889915824E-1
2.477163287E1,2.590605259E0,8.583475113E0,2.724684715E0
2.487168345E1,1.003201127E0,1.107591534E1,1.774157643E0
2.497175427E1,2.343995094E0,8.066311836E0,7.661679387E-1
2.507181175E1,2.145270348E0,1.182532310E1,3.158048391E0
2.517189133E1,1.498816013E0,9.866806030E0,1.367130876E0
2.527194694E1,1.206714511E0,8.865999222E0,1.288119793E0
2.537201392E1,7.063110471E-1,9.407105446E0,1.383890867E0
2.547208144E1,1.058269501E0,9.452596664E0,2.054287672E0
2.557214849E1,1.494027495E0,9.778218269E0,9.888355136E-1
2.567221094E1,6.416656375E-1,9.581888199E0,7.110996246E-1
2.577229195E1,-5.985686928E-2,1.000327969E1,1.168406129E0
2.587236381E1,3.615354896E-1,1.063536835E1,-4.046324492E-1
2.597242142E1,7.972934842E-1,9.548367500E0,4.094209969E-1
2.607248834E1,-7.422251999E-2,9.517242432E0,6.608198285E-1
2.617255062E1,4.333637357E-1,1.020918751E1,-7.877163887E-1
2.627275306E1,1.417410731E0,9.050358772E0,-2.011190802E-1
2.637281820E1,1.371919513E0,9.574705124E0,-1.867534369E-1
2.647288482E1,2.545114040E0,1.034805584E1,1.750214934E0
2.657295854E1,1.532335877E0,9.651321411E0,6.727912426E-1
2.667301242E1,2.365543604E0,8.913885117E0,3.782954216E-1
2.677308471E1,2.581028223E0,1.057551193E1,1.905842781E0
2.687315558E1,1.747820616E0,9.402317047E0,1.290514112E0
2.697322263E1,2.288926601E0,9.035993576E0,1.266571403E0
2.707328748E1,1.386285067E0,1.007750225E1,2.300898075E0
2.717335510E1,1.381496549E0,9.936240196E0,8.499675393E-1
2.727342204E1,2.403851986E0,1.190433407E1,-2.585816681E-1
2.737349559E1,7.805336118E-1,8.044763565E0,4.477293789E-1
2.747356264E1,2.411034822E0,1.054917526E1,2.262589693E0
2.757362379E1,1.539518714E0,8.854028702E0,1.082212210E0
2.767368957E1,1.505998850E0,1.296260357E1,3.419024467E0
2.777375555E1,2.274561077E-1,6.941002846E0,2.468497276E0
2.787383124E1,1.556278586E0,9.493299484E0,1.319245458E0
2.797389166E1,1.261782765E0,1.040073013E1,2.492439985E0
2.807396401E1,1.264177084E0,9.069513321E0,2.530748367E0
2.817403425E1,7.087053657E-1,9.727938652E0,1.915419817E0
2.827409930E1,7.350423932E-1,9.627379417E0,2.250618219E0
2.837416898E1,-1.340793967E-1,9.419076920E0,1.431776285E0
2.847423013E1,7.948992252E-1,9.445414543E0,1.177983165E0
2.857429414E1,4.525179267E-1,1.005116558E1,8.763045669E-1
2.867435472E1,1.810071707E0,9.689630508E0,1.082212210E0
2.877443087E1,9.648927450E-1,9.004867554E0,1.379102230E0
2.887449846E1,1.055875182E0,9.318517685E0,1.666415215E0
2.897456387E1,1.470084786E0,9.684841156E0,1.496421814E0
2.907463925E1,1.223474383E0,9.330489159E0,1.561067224E0
2.917470547E1,1.826831698E0,9.850046158E0,1.946545362E0
2.927477665E1,1.618529797E0,1.000327969E1,1.448536277E0
2.937484520E1,1.565855742E0,1.004158878E1,1.053480864E0
2.947490291E1,1.889082789E0,9.452596664E0,1.113337755E0
2.957497382E1,1.247417212E0,9.953000069E0,1.106154919E0
2.967502844E1,1.455719113E0,8.933039665E0,1.443747759E0
2.977510219E1,1.472478986E0,9.589070320E0,1.391073704E0
2.987516820E1,1.297696948E0,9.771035194E0,1.604164124E0
2.997523622E1,1.376708031E0,8.877970695E0,9.816526771E-1
3.007530210E1,1.122914910E0,1.039354706E1,1.544307232E0
3.017536758E1,9.912297726E-1,9.929058075E0,9.816526771E-1
3.027543606E1,5.411061049E-1,1.021397591E1,1.721483588E0
3.037550551E1,7.254652381E-1,9.270631790E0,8.451790214E-1
3.047556972E1,7.661679387E-2,9.500482559E0,1.137280583E0
3.057563861E1,1.218685865E0,9.823709488E0,7.829278708E-1
3.067570372E1,1.197137356E0,9.797372818E0,3.711125851E-1
3.077578243E1,6.273000240E-1,1.031692982E1,1.098972082E0
3.087583992E1,9.481328130E-1,9.320911407E0,1.666415215E0
3.097590816E1,1.345582485E0,9.926663399E0,1.927391171E0
3.107598198E1,1.719089270E0,9.366402626E0,7.925049663E-1
3.117604279E1,2.061470509E0,1.054678059E1,6.464542150E-1
3.127610787E1,1.312062621E0,9.677659035E0,8.810931444E-1
3.137618138E1,1.216291547E0,9.589070320E0,1.489238977E0
3.147624119E1,1.905842781E0,1.008708000E1,4.932205975E-1
3.157632315E1,1.098972082E0,9.754275322E0,1.936968327E0
3.167637373E1,2.027950764E0,9.450202942E0,2.504411459E0
3.177643851E1,1.855562925E0,1.206475067E1,1.340793848E0
3.187651006E1,3.830839694E-2,8.504464149E0,1.728666425E0
3.197657618E1,1.515576005E0,1.014454269E1,2.250618219E0
3.207664512E1,1.079817891E0,1.019961071E1,1.405439258E0
3.217671884E1,-1.604164094E-1,8.961771011E0,1.496421814E0
3.227677992E1,1.635289669E0,9.953000069E0,-1.819648892E-1
3.237685276E1,1.055875182E0,9.677659035E0,1.482056141E0
3.247691701E1,1.005595446E0,9.804554939E0,1.546701550E0
3.257698053E1,1.206714511E0,9.613013268E0,1.620923996E0
3.267704588E1,1.723877907E0,9.694418907E0,5.363175869E-1
3.277711776E1,2.437371731E0,1.023313046E1,1.077423692E-1
3.287718684E1,1.822043180E0,9.593858719E0,1.221080184E0
3.297725616E1,7.901107073E-1,9.201197624E0,8.260248303E-1
3.307732341E1,1.977671027E0,9.993702888E0,7.254652381E-1
3.317739105E1,1.666415215E0,9.383162498E0,1.096577883E0
3.327745070E1,1.484450340E0,1.061382008E1,1.580221415E0
3.337751621E1,1.101366401E0,8.408693314E0,1.790917516E0
3.347775772E1,8.619389534E-1,1.111422348E1,1.573038578E0
3.357780757E1,-9.337671846E-2,9.167677879E0,2.250618219E0
3.367786778E1,1.156434774E0,1.056832886E1,2.576239586E0
3.377794190E1,8.475732803E-1,9.639349937E0,3.409447432E0
3.387802471E1,7.374366522E-1,8.717555046E0,2.573845387E0
3.397807596E1,1.719089270E0,1.009665680E1,1.177983165E0
3.407814461E1,1.096577883E0,1.041030693E1,2.743839025E0
3.417821136E1,1.022355318E0,8.849239349E0,2.037527800E0
3.427828197E1,2.226675510E0,1.010862827E1,1.352765322E0
3.437835368E1,1.307274103E0,9.598648071E0,5.482889414E-1
3.447841880E1,1.395862222E0,9.964971542E0,7.278595567E-1
3.457848428E1,1.755003452E0,8.894730568E0,2.013585091E0
3.467854489E1,2.379909277E0,1.009186840E1,1.625712633E0
3.477862167E1,2.049499273E0,1.017087936E1,2.729473352E0
3.487869422E1,6.344828010E-1,8.753468513E0,1.884294271E0
3.497874740E1,9.170072675E-1,9.727938652E0,9.098244309E-1
3.507881461E1,5.363175869E-1,1.018763924E1,1.362342358E0
3.517888516E1,9.792584181E-1,9.186832428E0,2.104567528E0
3.527895097E1,8.595446348E-1,1.019961071E1,1.036720991E0
3.537902279E1,5.794144869E-1,9.112609863E0,1.381496549E0
3.547909480E1,1.168406129E0,9.701601982E0,1.063058019E0
3.557915212E1,2.104567528E0,1.011581135E1,1.738243461E0
3.567921563E1,1.218685865E0,9.407105446E0,2.188367128E0
3.577930508E1,1.936968327E0,1.092747021E1,1.484450400E-1
3.587935850E1,1.850774407E0,8.858817101E0,7.589851022E-1
3.597942465E1,1.635289669E0,9.002472878E0,1.709512234E0
3.607949373E1,2.525959969E0,1.196179676E1,1.221080184E0
3.617956014E1,1.400650740E0,7.855615616E0,1.012778282E0
3.627962319E1,1.762186289E0,9.292180061E0,1.829225898E0
3.637968708E1,1.170800328E0,1.208390522E1,1.187560320E0
3.647975839E1,5.219519138E-1,8.255459785E0,1.534730196E0
3.657982204E1,9.744698405E-1,1.092268181E1,2.255406857E0
3.667988722E1,1.649655342E0,1.183011150E1,4.597007632E-1
3.677995387E1,7.470137477E-1,6.912271500E0,1.652049661E0
3.688002639E1,5.698373914E-1,1.395143890E1,8.954587579E-1
3.698009157E1,1.343188167E0,8.281796455E0,1.901054144E0
3.708015839E1,1.161223292E0,8.367990494E0,1.649655342E0
3.718022353E1,2.640885115E0,1.034805584E1,2.944957912E-1
3.728030171E1,1.278542757E0,9.050358772E0,4.453351200E-1
3.738035973E1,9.768640995E-1,7.439012051E0,1.280937076E0
3.748043204E1,2.576239586E0,1.047016335E1,9.840469360E-1
3.758049316E1,1.075029373E0,1.005116558E1,-8.140534163E-2
3.768055298E1,1.723877907E0,8.676852226E0,7.182824612E-2
3.778062459E1,1.668809533E0,9.117398262E0,1.254600048E0
3.788069414E1,1.060663700E0,1.057311726E1,2.458920240E0
3.798076112E1,1.290514112E0,1.349652672E1,1.211503029E0
3.808084347E1,4.213923812E-1,7.144515991E0,9.433442950E-1
3.818089945E1,1.216291547E0,1.149730778E1,-3.591412306E-2
3.828097150E1,7.829278708E-1,9.593858719E0,5.985686928E-2
3.838103574E1,9.984126091E-1,9.155706406E0,1.515576005E0
3.848110362E1,1.458113313E0,1.051326084E1,1.781340480E0
3.858117108E1,1.324033976E0,9.845257759E0,1.482056141E0
3.868123726E1,1.757397652E0,9.572310448E0,1.280937076E0
3.878129707E1,1.731060743E0,1.037918091E1,6.081457734E-1
3.888138610E1,1.616135478E0,8.463761330E0,5.195576549E-1
3.898143334E1,1.180377483E0,1.054438591E1,1.067846537E0
3.908149952E1,1.877111435E0,9.478934288E0,1.347976685E0
3.918157067E1,1.857957244E0,9.273026466E0,1.477267504E0
3.928163822E1,1.683175206E0,9.799766541E0,1.515576005E0
3.938171739E1,7.541965842E-1,1.016609097E1,1.726272106E0
3.948177201E1,2.873129845E-1,9.555550575E0,1.817254543E0
3.958184153E1,9.433442950E-1,9.577098846E0,1.010383964E0
3.968190258E1,4.549122155E-1,1.023791885E1,1.628106833E0
3.978197313E1,7.134938836E-1,8.648120880E0,1.154040456E0
3.988204404E1,1.003201127E0,1.038157558E1,1.924996972E0
3.998211419E1,1.529941559E0,8.583475113E0,2.547508478E0
4.008218097E1,1.647261024E0,1.059466648E1,1.532335877E0
4.018225032E1,1.726272106E0,9.675264359E0,1.041509509E0
4.028231014E1,1.573038578E0,1.013975334E1,2.540325642E0
4.038237865E1,1.003201127E0,9.086273193E0,2.355966330E0
4.048244243E1,1.467690468E0,9.452596664E0,7.637736797E-1
4.058250655E1,2.140481710E0,9.835680962E0,2.071047783E0
4.068256520E1,1.407833576E0,9.502876282E0,2.523565531E0
4.078286593E1,1.024749637E0,8.803748131E0,1.568249941E0
4.088293434E1,2.801301479E-1,1.071437931E1,1.036720991E0
4.098300306E1,6.727912426E-1,9.138946533E0,1.300091267E0
4.108306847E1,1.494027495E0,1.046537495E1,1.692752242E0
4.118314398E1,2.130904645E-1,9.158101082E0,2.133298874E0
4.128320333E1,5.794144869E-1,9.500482559E0,2.142875910E0
4.138327638E1,1.120520592E0,8.770228386E0,1.793311834E0
4.148333662E1,1.901054144E0,1.095620155E1,1.304879785E0
4.158340948E1,8.499675393E-1,8.664880753E0,1.721483588E0
4.168346736E1,1.245022893E0,1.005356026E1,2.073441982E0
4.178355511E1,2.389486313E0,1.036481571E1,1.728666425E0
4.188361760E1,6.895511150E-1,8.600234985E0,1.271359921E0
4.198367248E1,2.382303476E0,1.014454269E1,6.895511150E-1
4.208374032E1,1.146857619E0,9.938634872E0,1.383890867E0
4.218381064E1,1.149251938E0,9.670475960E0,2.753416061E0
4.228388072E1,6.296942830E-1,1.024749660E1,1.443747759E0
4.238394230E1,5.171633363E-1,1.001525116E1,1.441353440E0
4.248400802E1,1.412622184E-1,9.763853073E0,2.229069948E0
4.258407487E1,1.113337755E0,9.802161217E0,1.276148438E0
4.268413378E1,6.296942830E-1,1.017566776E1,8.547561169E-1
4.278421304E1,7.015225291E-1,9.134158134E0,1.632895470E0
4.288428299E1,9.409499764E-1,9.991309166E0,2.343995094E0
4.298434327E1,1.556278586E0,9.778218269E0,1.644866824E0
4.308440995E1,1.316851139E0,9.476539612E0,1.776551962E0
4.318448246E1,1.778946161E0,9.624984741E0,1.295302629E0
4.328454595E1,2.324840784E0,9.538790703E0,2.286532402E0
4.338461826E1,1.247417212E0,9.213169098E0,1.795706153E0
4.348468654E1,1.580221415E0,9.275420189E0,1.620923996E0
4.358474919E1,1.419804931E0,9.505270958E0,2.111750364E0
4.368481507E1,1.623318315E0,1.022834206E1,2.130904675E0
4.378487952E1,6.009629965E-1,9.074301720E0,1.211503029E0
4.388494814E1,6.847625971E-1,1.066888809E1,2.370332003E0
4.398501525E1,2.561874092E-1,1.073592854E1,1.704723716E0
4.408508303E1,4.309694469E-2,8.178842545E0,1.805283189E0
4.418515471E1,7.781392932E-1,1.003919411E1,9.624984860E-1
4.428521733E1,1.180377483E0,9.261054993E0,4.884320498E-1
4.438528324E1,1.642472506E0,9.213169098E0,1.716695070E0
4.448535736E1,1.573038578E0,1.090113354E1,1.450930476E0
4.458542660E1,2.157241583E0,9.976943016E0,-8.140534163E-2
4.468548312E1,9.960182905E-1,9.191620827E0,2.229069948E0
4.478555511E1,2.090201855E0,1.083888245E1,-4.237866402E-1
4.488561899E1,1.005595446E0,7.903501034E0,0.000000000E0
4.498569390E1,1.367130876E0,9.294574738E0,1.264177084E0
4.508575708E1,2.367937803E0,1.079099655E1,4.764606953E-1
4.518582420E1,2.681587934E-1,9.703995705E0,8.356019258E-1
4.528588905E1,1.707117915E0,9.028810501E0,2.284138203E0
4.538596153E1,1.340793967E-1,1.179419804E1,1.242628574E0
4.548602717E1,8.763045669E-1,7.671256542E0,9.720755816E-1
4.558609629E1,1.338399649E0,1.002722263E1,6.129343510E-1
4.568615037E1,1.149251908E-1,1.062100315E1,5.889915824E-1
4.578622519E1,1.213897347E0,9.380768776E0,1.659232497E0
4.588629491E1,7.972934842E-1,9.670475960E0,2.353572130E0
4.598636716E1,1.003201127E0,9.869200706E0,1.673598051E0
4.608643694E1,2.202732801E0,1.134167957E1,1.577827096E0
4.618649748E1,1.228263021E0,8.700794220E0,9.194015265E-1
4.628657223E1,5.458946824E-1,9.055147171E0,9.194015265E-1
4.638663088E1,2.494834423E0,9.610619545E0,8.044763207E-1
4.648670046E1,1.010383964E0,9.138946533E0,8.858816624E-1
4.658676274E1,1.683175206E0,1.036960411E1,1.359948039E0
4.668683396E1,1.185166001E0,9.208380699E0,1.149251938E0
4.678689314E1,1.319245458E0,1.027383327E1,1.163617611E0
4.688696855E1,2.921015322E-1,1.020200539E1,9.170072675E-1
4.698702884E1,5.458946824E-1,9.613013268E0,1.230657220E0
4.708709539E1,1.235445857E0,9.447808266E0,6.153286099E-1
4.718717130E1,2.825244367E-1,1.030495834E1,1.434170604E0
4.728723079E1,7.877163887E-1,9.517242432E0,1.831620216E0
4.738730030E1,9.194015265E-1,8.980924606E0,2.375120640E0
4.748736705E1,1.304879785E0,9.771035194E0,2.231464148E0
4.758744413E1,1.573038578E0,1.009186840E1,1.374313712E0
4.768749558E1,1.266571403E0,8.698400497E0,1.573038578E0
4.778756963E1,2.039922237E0,1.025467873E1,1.826831698E0
4.788764038E1,1.000806928E0,8.808537483E0,1.719089270E0
4.798960787E1,2.080624819E0,8.913885117E0,1.771763325E0
4.808967445E1,2.279349566E0,9.924268723E0,2.384697676E0
4.818974326E1,9.768640995E-1,9.617801666E0,2.059076309E0
4.828980434E1,1.635289669E0,9.584281921E0,1.752609134E0
4.838987589E1,7.326480746E-1,1.014933109E1,1.228263021E0
4.848993817E1,2.657645047E-1,9.004867554E0,1.130097747E0
4.859000569E1,1.611346960E0,1.281415844E1,2.030344963E0
4.869007413E1,7.972934842E-1,7.877163887E0,1.089395046E0
4.879014222E1,9.696813226E-1,9.380768776E0,9.529213905E-1
4.889021067E1,9.720755816E-1,1.050847244E1,7.398309112E-1
4.899027738E1,7.972934842E-1,9.756669998E0,1.127703428E0
4.909034193E1,1.594586968E0,9.536396980E0,7.278595567E-1
4.919042301E1,1.769369125E0,1.015172482E1,1.177983165E0
4.929048263E1,1.874717116E0,8.997684479E0,8.834874034E-1
4.939054348E1,1.522758722E0,9.689630508E0,1.221080184E0
4.949061329E1,1.532335877E0,9.244295120E0,6.105400920E-1
4.959068501E1,1.613741279E0,1.069043732E1,2.444554567E0
4.969074106E1,1.577827096E0,8.253065109E0,1.534730196E0
4.979081537E1,1.264177084E0,1.041030693E1,2.324840784E0
4.989087862E1,3.328042030E-1,9.895537376E0,1.970488191E0
4.999094893E1,6.919454336E-1,9.421471596E0,1.611346960E0
5.009101695E1,1.087000728E0,1.014214802E1,1.182771802E0
5.019107973E1,4.884320498E-1,1.000327969E1,6.991282701E-1
5.029114834E1,1.367130876E0,9.502876282E0,1.659232497E0
5.039121376E1,1.118126392E0,1.017087936E1,2.111750364E0
5.049128074E1,8.379961848E-1,9.816526413E0,1.036720991E0
5.059134732E1,1.838803053E0,9.869200706E0,1.565855742E0
5.069141670E1,1.805283189E0,9.354432106E0,1.750214934E0
5.079148102E1,1.836408734E0,9.684841156E0,1.005595446E0
5.089154867E1,1.494027495E0,8.808537483E0,1.814860344E0
5.099161672E1,2.248224020E0,9.605830193E0,1.326428294E0
5.109168721E1,1.695146561E0,9.735121727E0,2.080624819E0
5.119175132E1,1.465296149E0,9.713572502E0,2.164424419E0
5.129181840E1,1.604164124E0,9.811738014E0,2.741444588E0
5.139188475E1,1.570644259E0,1.048452950E1,1.532335877E0
5.149195136E1,2.322446555E-1,9.464568138E0,1.721483588E0
5.159202188E1,9.337671995E-1,9.732727051E0,1.561067224E0
5.169208179E1,8.236305118E-1,8.664880753E0,5.626545548E-1
5.179215684E1,7.565908432E-1,1.064255142E1,2.243435383E0
5.189221979E1,1.479661822E0,9.411893845E0,1.525153041E0
5.199228733E1,6.536370516E-1,9.864412308E0,1.668809533E0
5.209235882E1,2.219492674E0,9.960183144E0,1.728666425E0
5.219242627E1,2.279349566E0,9.249083519E0,2.427794695E0
5.229248935E1,1.738243461E0,9.917086601E0,1.403045058E0
5.239256283E1,1.635289669E0,9.344854355E0,1.989642382E0
5.249262608E1,2.097384691E0,9.821314812E0,1.223474383E0
5.259269516E1,1.829225898E0,9.253871918E0,1.769369125E0
5.269275108E1,1.793311834E0,9.615407944E0,2.006402254E0
5.279283155E1,1.508393168E0,1.016609097E1,1.503604531E0
5.289290177E1,3.759011328E-1,9.811738014E0,2.154847383E0
5.299295865E1,1.182771802E0,9.158101082E0,1.517970204E0
5.309302593E1,8.451790214E-1,1.011341667E1,7.470137477E-1
5.319310818E1,6.129343510E-1,9.866806030E0,-3.495641351E-1
5.329316103E1,1.383890867E0,9.280209541E0,2.394274771E-1
5.339323241E1,9.888355136E-1,9.711178780E0,1.098972082E0
5.349330715E1,1.438959122E0,1.002482891E1,2.114144564E0
5.359336210E1,1.750214934E0,9.277814865E0,1.515576005E0
5.369342852E1,1.951334000E0,1.000806904E1,9.194015265E-1
5.379349417E1,2.128510237E0,9.500482559E0,1.034326673E0
5.389356259E1,1.410227895E0,9.270631790E0,1.412622094E0
5.399363040E1,1.936968327E0,9.407105446E0,1.635289669E0
5.409370125E1,1.664021015E0,9.340065956E0,2.061470509E0
5.419376503E1,1.702329397E0,9.531607628E0,1.960911036E0
5.429383768E1,1.462901950E0,1.035523891E1,2.150058746E0
5.439390509E1,1.458113313E0,9.507665634E0,2.296109438E0
5.449397370E1,4.046324492E-1,9.703995705E0,1.922602654E0
5.459403792E1,8.212362528E-1,9.996097565E0,1.596981287E0
5.469409083E1,9.816526771E-1,9.768641472E0,1.726272106E0
5.479416565E1,6.919454336E-1,9.900326729E0,1.601769805E0
5.489423509E1,7.589851022E-1,9.476539612E0,1.728666425E0
5.499431074E1,1.017566800E0,9.715967178E0,2.166818619E0
5.509436912E1,1.453324795E0,9.644139290E0,2.214704275E0
5.519444250E1,1.958516836E0,9.692024231E0,1.944151163E0
5.529453146E1,1.790917516E0,9.287391663E0,1.788523316E0
5.539459077E1,2.341600657E0,9.766246796E0,1.237840056E0
5.549466565E1,1.953728199E0,9.131764412E0,1.118126392E0
5.559473153E1,1.929785490E0,9.804554939E0,1.357553840E0
5.569479232E1,1.561067224E0,9.744698524E0,1.122914910E0
5.579485987E1,1.857957244E0,1.025707340E1,1.757397652E0
5.589493285E1,1.192348838E0,9.407105446E0,1.999219418E0
5.599499410E1,1.010383964E0,1.024989033E1,1.534730196E0
5.609506781E1,6.536370516E-1,1.034087276E1,6.536370516E-1
5.619512879E1,1.000806928E0,9.569916725E0,1.233051538E0
5.629519625E1,9.122186899E-1,9.229928970E0,1.242628574E0
5.639526107E1,8.379961848E-1,1.026904488E1,1.577827096E0
5.649532828E1,8.834874034E-1,9.189227104E0,1.580221415E0
5.659540240E1,9.601042271E-1,9.136552811E0,1.448536277E0
5.669545715E1,1.948939681E0,9.921875000E0,2.370332003E0
5.679553929E1,1.541913033E0,9.694418907E0,1.496421814E0
5.689559881E1,2.044710636E0,9.615407944E0,1.692752242E0
5.699566439E1,1.798100352E0,8.813325882E0,1.596981287E0
5.709574050E1,1.601769805E0,9.785401344E0,1.034326673E0
5.719580505E1,1.544307232E0,9.531607628E0,1.221080184E0
5.729586566E1,2.221887112E0,9.450202942E0,1.618529797E0
5.739594198E1,2.241041183E0,9.783006668E0,1.910631299E0
5.749600456E1,1.173194647E0,9.514847755E0,1.771763325E0
5.759606801E1,7.541965842E-1,9.644139290E0,1.108549237E0
5.769612852E1,8.284190893E-1,1.082212257E1,8.499675393E-1
5.779621247E1,1.175588965E0,9.203592300E0,1.115732074E0
5.789628365E1,7.805336118E-1,1.005834866E1,1.096577883E0
5.799634966E1,8.475732803E-1,9.636956215E0,1.541913033E0
5.809640484E1,6.632141471E-1,9.522030830E0,1.917814136E0
5.819647032E1,1.563461423E0,9.088666916E0,1.766974807E0
5.829653687E1,2.166818619E0,1.033847904E1,1.625712633E0
5.839661542E1,2.178790092E0,1.217728138E1,-5.171633363E-1
5.849667350E1,1.060663700E0,5.140508175E0,2.140481710E0
5.859674098E1,1.934574008E0,1.234009266E1,-6.033572555E-1
5.869679639E1,3.325647593E0,1.114295483E1,-1.388679445E-1
5.879687671E1,8.140534163E-2,7.211555958E0,2.923409462E0
5.889694119E1,2.219492674E0,1.233290958E1,2.293715239E0
5.899700820E1,6.656084061E-1,8.073494911E0,-9.337671846E-2
5.909707545E1,7.158881426E-1,9.035993576E0,2.197944164E0
5.919714270E1,1.182771802E0,8.786988258E0,1.755003452E0
5.929720825E1,4.429408312E-1,9.165284157E0,7.422251999E-2
5.939727423E1,7.350423932E-1,9.543579102E0,8.595446348E-1
5.949734455E1,4.285751879E-1,8.882759094E0,1.249811411E0
5.959740923E1,9.505270720E-1,1.004637718E1,1.115732074E0
5.969748398E1,1.606558442E0,8.674457550E0,1.146857619E0
5.979754576E1,1.484450340E0,9.258660316E0,2.540325642E0
5.989761035E1,1.790917516E0,1.171518707E1,-2.130904645E-1
5.999767733E1,1.544307232E0,1.029059315E1,6.703969836E-2
6.009775361E1,8.379961848E-1,8.691217422E0,1.051086664E0
6.019782146E1,3.699154615E0,1.007271385E1,2.303292274E0
6.029788537E1,9.912297726E-1,8.923461914E0,1.939362586E-1
6.039794765E1,1.417410731E0,9.407105446E0,1.137280583E0
6.049801894E1,1.336005330E0,1.150209618E1,2.250618339E-1
6.059808455E1,9.792584181E-1,9.514847755E0,1.814860344E0
6.069814653E1,4.740664065E-1,9.610619545E0,1.266571403E0
6.079821945E1,3.759011328E-1,9.689630508E0,1.031932473E0
6.089828830E1,8.643332124E-1,1.038397026E1,1.175588965E0
6.099835351E1,6.727912426E-1,9.330489159E0,1.187560320E0
6.109843113E1,8.164477348E-1,1.129139996E1,9.864411950E-1
6.119848235E1,1.774157643E0,1.046298122E1,1.271359921E0
6.129856226E1,2.135693073E0,8.636149406E0,2.245829821E0
6.139862964E1,3.284945011E0,1.344385338E1,-1.893871427E0
6.149868962E1,8.834874034E-1,5.423032284E0,1.031932473E0
6.159875147E1,1.747820616E0,1.689879227E1,4.814886570E0
6.169882342E1,1.549095750E0,1.079099655E1,6.632141471E-1
6.179889173E1,9.457385540E-1,6.399896622E0,1.867534369E-1
6.189895324E1,1.474873304E0,1.129618835E1,-8.763045669E-1
6.199902509E1,9.672870040E-1,9.323306084E0,-1.005595446E0
6.209909664E1,-1.484450340E0,1.151885605E1,-1.254600048E0
6.219915565E1,2.389486313E0,8.447001457E0,8.571503758E-1
6.229922660E1,1.151646137E0,7.848433018E0,2.971295118E0
6.239928865E1,5.291347504E-1,1.015651417E1,-1.264177084E0
6.249936735E1,1.731060743E0,7.201978683E0,2.011190891E0
6.259942810E1,1.917814136E0,1.306316376E1,8.320104599E0
6.269948252E1,1.462901950E0,5.901887417E0,1.750214934E0
6.279955566E1,3.088614464E0,1.043424988E1,-8.858817071E-2
6.289962675E1,6.416656375E-1,1.116689777E1,1.125309110E0
6.299969176E1,1.331216812E0,8.298556328E0,2.027950764E0
6.309975804E1,2.667222023E0,1.258191395E1,1.680780888E0
6.319982472E1,1.192348838E0,8.377567291E0,8.643332124E-1
6.329990617E1,1.558672905E0,1.032171917E1,3.373533249E0
6.339995995E1,1.336005330E0,9.842864037E0,1.233051538E0
6.350002629E1,9.577099234E-2,8.023215294E0,1.814860344E0
6.360009294E1,1.132491946E0,1.060424328E1,1.091789365E0
6.370015696E1,8.715160489E-1,9.495694160E0,4.142095447E-1
6.380023424E1,1.331216812E0,9.344854355E0,1.568249941E0
6.390029719E1,1.649655342E0,1.016609097E1,2.916226625E0
6.400036194E1,1.939362645E0,9.117398262E0,1.606558442E0
6.410042772E1,2.212309837E0,9.076695442E0,1.515576005E0
6.420050080E1,2.815667152E0,1.110704041E1,1.211503029E0
6.430056205E1,1.223474383E0,8.212362289E0,1.151646137E0
6.440063210E1,2.150058746E0,9.225140572E0,9.816526771E-1
6.450069711E1,2.731867552E0,1.126745701E1,1.072635174E0
6.460077349E1,1.635289669E0,8.707977295E0,1.541913033E0
6.470082197E1,1.776551962E0,1.006553173E1,2.035133600E0
6.480089622E1,1.443747759E0,9.715967178E0,1.240234375E0
6.490096601E1,2.250618339E-1,9.993702888E0,1.893871427E0
6.500103289E1,1.515576005E0,9.325700760E0,1.185166001E0
6.510109970E1,9.050358534E-1,9.557945251E0,2.090201855E0
6.520117215E1,9.265843630E-1,8.597841263E0,1.551490068E0
6.530123496E1,1.587404251E0,1.018045616E1,1.479661822E0
6.540130254E1,2.332023621E0,1.187799740E1,2.102173328E0
6.550136833E1,1.362342358E0,8.542772293E0,2.032739401E0
6.560144071E1,2.214704275E0,9.464568138E0,1.278542757E0
6.570150449E1,2.011190891E0,1.032171917E1,2.018373728E0
6.580157098E1,1.532335877E0,8.856422424E0,1.043903828E0
6.590164156E1,1.719089270E0,8.952193260E0,8.403904438E-1
6.600170757E1,3.074248791E0,1.358750916E1,-3.495641351E-1
6.610177338E1,6.871568561E-1,7.099024773E0,8.260248303E-1
6.620183686E1,1.170800328E0,1.129379463E1,8.691217303E-1
6.630190474E1,8.236305118E-1,9.052753448E0,9.409499764E-1
6.640197123E1,1.221080184E0,9.160495758E0,1.115732074E0
6.650204341E1,1.237840056E0,9.601041794E0,1.774157643E0
6.660210832E1,1.139674783E0,9.361614227E0,1.999219418E0
6.670216461E1,1.503604531E0,9.775823593E0,3.067065954E0
6.680223946E1,2.324840784E0,9.155706406E0,2.439765930E0
6.690231467E1,1.963305354E0,9.368797302E0,1.987248063E0
6.700237932E1,2.250618219E0,9.545973778E0,1.383890867E0
6.710244234E1,1.915419817E0,9.421471596E0,2.499622822E0
6.720252212E1,2.542719841E0,9.174860954E0,1.386285067E0
6.730257520E1,2.264983892E0,9.438231468E0,1.647261024E0
6.740264658E1,1.010383964E0,9.062330246E0,1.654443860E0
6.750271703E1,1.771763325E0,1.123633194E1,1.525153041E0
6.760278865E1,4.525179267E-1,9.026415825E0,1.194743156E0
6.770284120E1,1.204320192E0,9.993702888E0,9.122186899E-1
6.780291629E1,1.359948039E0,1.022834206E1,1.154040456E0
6.790298460E1,1.130097747E0,8.966559410E0,8.786988258E-1
6.800305142E1,1.206714511E0,8.451789856E0,1.745426297E0
6.810311876E1,2.027950764E0,1.252684593E1,1.132491946E0
6.820318405E1,1.893871427E0,8.075888634E0,1.865140080E0
6.830324676E1,2.217098475E0,8.789382935E0,1.443747759E0
6.840331688E1,2.104567528E0,1.027143860E1,7.613793612E-1
6.850338326E1,1.556278586E0,8.954587936E0,1.288119793E0
6.860344771E1,2.399063349E0,9.735121727E0,1.549095750E0
6.870351153E1,1.910631299E0,9.227535248E0,1.836408734E0
6.880358041E1,1.022355318E0,1.024510193E1,1.063058019E0
6.890365703E1,1.525153041E0,9.263449669E0,1.695146561E0
6.900371834E1,4.860377908E-1,1.057072353E1,1.151646137E0
6.910379879E1,1.319245458E0,9.790189743E0,3.806896806E-1
6.920385097E1,8.499675393E-1,9.280209541E0,7.805336118E-1
6.930392539E1,7.805336118E-1,1.063776302E1,2.020767927E0
6.940398714E1,1.628106833E0,8.772623062E0,2.937775135E0
6.950405892E1,1.376708031E0,9.548367500E0,1.817254543E0
6.960412456E1,3.009603500E0,1.047734642E1,1.223474383E0
6.970418092E1,1.582615614E0,8.581081390E0,1.601769805E0
6.980450854E1,1.582615614E0,1.062818623E1,1.996825218E0
6.990457829E1,1.735849261E0,8.679245949E0,1.182771802E0
7.000464767E1,2.604970932E0,9.682447433E0,2.827638626E0
7.010471299E1,1.197137356E0,1.007989693E1,1.994430900E0
7.020478296E1,9.457385540E-1,8.820508003E0,2.676799297E0
7.030484678E1,1.347976685E0,1.048452950E1,1.505998850E0
7.040491526E1,6.057515144E-1,9.244295120E0,1.632895470E0
7.050498631E1,1.867534369E-1,9.996097565E0,3.495641351E-1
7.060504529E1,9.241901040E-1,9.529213905E0,7.230709791E-1
7.070511624E1,8.284190893E-1,1.002243423E1,1.132491946E0
7.080518579E1,1.326428294E0,1.037199879E1,1.656838179E0
7.090524697E1,1.522758722E0,8.628966331E0,2.269772530E0
7.100531455E1,2.217098475E0,1.055156898E1,1.635289669E0
7.110538183E1,1.750214934E0,8.619389534E0,1.321639657E0
7.120544798E1,1.723877907E0,9.172467232E0,1.338399649E0
7.130551629E1,1.687963724E0,1.001525116E1,1.359948039E0
7.140558271E1,2.372726440E0,9.589070320E0,1.910631299E0
7.150565406E1,1.515576005E0,9.344854355E0,2.614548206E0
7.160572607E1,1.039115310E0,9.950606346E0,1.755003452E0
7.170579565E1,1.314456820E0,1.014933109E1,1.946545362E0
7.180585610E1,1.077423692E0,8.940221786E0,1.486844659E0
7.190592108E1,3.902668059E-1,1.026186180E1,1.426987767E0
7.200598680E1,1.015172482E0,9.155706406E0,1.589798450E0
7.210606538E1,1.000806928E0,9.184437752E0,2.339206457E0
7.220612872E1,1.745426297E0,9.505270958E0,2.377514839E0
7.230618750E1,1.893871427E0,1.001285744E1,2.322446585E0
7.240625915E1,2.159635782E0,9.447808266E0,2.035133600E0
7.250632507E1,1.881899953E0,8.887548447E0,1.893871427E0
7.260639441E1,1.893871427E0,1.009186840E1,1.118126392E0
7.270644896E1,2.094990492E0,9.337671280E0,1.039115310E0
7.280652178E1,1.939362645E0,9.871595383E0,1.714300752E0
7.290658966E1,1.438959122E0,9.845257759E0,2.015979290E0
7.300665734E1,1.522758722E0,9.852440834E0,2.049499273E0
7.310672492E1,8.284190893E-1,9.601041794E0,8.954587579E-1
7.320680091E1,4.309694767E-1,1.006553173E1,7.063110471E-1
7.330686272E1,1.118126392E0,8.875576973E0,7.757450342E-1
7.340692561E1,8.715160489E-1,1.041988373E1,9.984126091E-1
7.350699546E1,1.003201127E0,8.806142807E0,1.228263021E0
7.360706074E1,1.975276709E0,1.137519932E1,5.842030644E-1
7.370712699E1,1.972882390E0,9.122186661E0,1.139674783E0
7.380719917E1,1.968093872E0,9.543579102E0,1.407833576E0
7.390726695E1,1.632895470E0,9.126976013E0,1.613741279E0
7.400734300E1,2.202732801E0,9.677659035E0,1.364736676E0
7.410739845E1,1.723877907E0,9.715967178E0,2.157241583E0
7.420746177E1,2.217098475E0,9.560338974E0,2.516382933E0
7.430753211E1,1.383890867E0,9.687235832E0,2.660039425E0
7.440760286E1,1.027143836E0,9.682447433E0,2.068653345E0
7.450766841E1,6.632141471E-1,9.172467232E0,1.240234375E0
7.460773902E1,6.895511150E-1,9.550762177E0,1.661626697E0
7.470778994E1,5.865973234E-1,1.047495270E1,1.625712633E0
7.480787192E1,9.601042271E-1,7.977723598E0,2.566662550E0
7.490793710E1,1.656838179E0,1.160265541E1,2.442160368E0
7.500800605E1,2.578634024E0,9.957788467E0,1.723877907E0
7.510806724E1,1.371919513E0,7.956175327E0,2.557085514E0
7.520813428E1,2.525959969E0,9.979337692E0,1.893871427E0
7.530820496E1,2.013585091E0,9.390345573E0,1.022355318E0
7.540827271E1,1.680780888E0,9.122186661E0,2.176395893E0
7.550833922E1,2.499622822E0,1.033129597E1,2.784541607E0
7.560840874E1,1.731060743E0,9.584281921E0,1.829225898E0
7.570847192E1,1.158828974E0,8.865999222E0,2.518777132E0
7.580854553E1,8.571503758E-1,1.136801720E1,1.180377483E0
7.590860678E1,1.007989645E0,8.353624344E0,1.197137356E0
7.600867142E1,4.118152559E-1,9.730332375E0,5.578660369E-1
7.610874317E1,1.089395046E0,1.024989033E1,5.961744189E-1
7.620880605E1,1.388679385E0,7.774210453E0,2.607365370E0
7.630887087E1,2.032739401E0,1.156674194E1,1.776551962E0
7.640893978E1,1.958516836E0,8.078283310E0,1.340793848E0
7.650901177E1,2.008796453E0,1.068325424E1,2.765387297E0
7.660908492E1,1.857957244E0,8.102226257E0,2.178790092E0
7.670913243E1,1.367130876E0,8.631361008E0,9.026415944E-1
7.680921091E1,2.818061352E0,1.104478931E1,3.045517445E0
7.690927909E1,1.872322917E0,9.143735886E0,1.774157643E0
7.700932202E1,1.551490068E0,8.887548447E0,3.069460392E0
7.710938983E1,8.427847624E-1,9.905115128E0,1.690358043E0
7.720946101E1,1.170800328E0,9.045570374E0,2.018373728E0
7.730952469E1,9.170072675E-1,1.000088596E1,2.944957912E-1
7.740959361E1,1.156434774E0,8.952193260E0,8.715160489E-1
7.750965816E1,9.098244309E-1,1.054678059E1,1.395862222E0
7.760972854E1,2.109356165E0,9.917086601E0,1.640078187E0
7.770979689E1,1.709512234E0,9.282603264E0,2.664827824E0
7.780986136E1,2.217098475E0,9.474145889E0,1.429382086E0
7.790992685E1,2.152452946E0,9.220352173E0,1.975276709E0
7.800999366E1,2.375120640E0,1.003440571E1,1.721483588E0
7.811006364E1,1.965699673E0,8.976136208E0,1.843591571E0
7.821013039E1,1.934574008E0,8.140534401E0,2.042316437E0
7.831019690E1,1.642472506E0,1.161941528E1,1.611346960E0
7.841026635E1,1.091789365E0,8.679245949E0,1.237840056E0
7.851033363E1,1.130097747E0,1.112619495E1,1.381496549E0
7.861040294E1,-2.968900800E-1,9.055147171E0,1.575432777E0
7.871046026E1,1.015172482E0,9.064723969E0,1.122914910E0
7.881053488E1,1.405439258E0,9.941028595E0,2.056682110E0
7.891059809E1,1.204320192E0,9.153312683E0,2.133298874E0
7.901066524E1,1.798100352E0,1.020679379E1,2.523565531E0
7.911073409E1,1.944151163E0,1.009905148E1,9.720755816E-1
7.921080570E1,2.212309837E0,8.449396133E0,2.150058746E0
7.931087148E1,2.576239586E0,9.857229233E0,1.484450340E0
7.941093453E1,1.762186289E0,9.292180061E0,1.673598051E0
7.951100661E1,2.106961727E0,9.138946533E0,2.753416061E0
7.961106919E1,1.972882390E0,1.030974770E1,1.642472506E0
7.971113401E1,1.534730196E0,9.419076920E0,1.913025618E0
7.981121136E1,1.180377483E0,1.009665680E1,2.212309837E0
7.991126951E1,7.948992252E-1,9.397528648E0,2.023162127E0
8.001134003E1,7.589851022E-1,9.342460632E0,1.314456820E0
8.011140297E1,1.077423692E0,9.680052757E0,2.025556564E0
8.021147046E1,1.034326673E0,9.852440834E0,2.688770533E0
8.031154171E1,1.723877907E0,9.141341209E0,1.853168726E0
8.041161836E1,2.815667152E0,9.917086601E0,2.300898075E0
8.051167261E1,2.648067951E0,1.001764584E1,7.829278708E-1
8.061174982E1,1.503604531E0,7.620976925E0,1.877111435E0
8.071180384E1,2.956929445E0,1.035284424E1,7.087053657E-1
8.081187328E1,1.927391171E0,9.610619545E0,1.453324795E0
8.091194026E1,2.284138203E0,8.921068192E0,2.276955366E0
8.101200798E1,1.819648862E0,1.011341667E1,1.951334000E0
8.111207883E1,9.433442950E-1,9.155706406E0,1.857957244E0
8.121214800E1,8.882759809E-1,1.032411289E1,1.652049661E0
8.131221425E1,4.860377908E-1,9.581888199E0,6.033572555E-1
8.141227900E1,7.565908432E-1,9.268238068E0,1.467690468E0
8.151234265E1,1.656838179E0,1.005356026E1,2.808484316E0
8.161241000E1,1.242628574E0,7.793364525E0,1.699935079E0
8.171247282E1,2.741444588E0,1.094423008E1,3.373533249E0
8.181255620E1,2.264983892E0,1.187799740E1,1.230657220E0
8.191261318E1,1.948939681E0,5.849213123E0,1.738243461E0
8.201268243E1,2.030344963E0,1.000806904E1,1.520364523E0
8.211275085E1,2.080624819E0,9.869200706E0,5.818088055E-1
8.221281982E1,1.762186289E0,8.181237221E0,1.810071707E0
8.231288031E1,2.430188894E0,1.224911022E1,2.106961727E0
8.241295222E1,1.352765322E0,8.344047546E0,1.944151163E0
8.251301500E1,1.352765322E0,9.155706406E0,2.985660791E0
8.261308402E1,1.369525194E0,9.651321411E0,2.099778891E0
8.271314693E1,4.453351200E-1,9.759063721E0,1.958516836E0
8.281321598E1,9.122186899E-1,9.936240196E0,2.372726440E0
8.291328336E1,7.206767201E-1,9.692024231E0,2.185972929E0
8.301334987E1,2.092596292E0,9.404711723E0,3.165231228E0
8.311341726E1,2.130904675E0,8.933039665E0,2.858764172E0
8.321348397E1,2.439765930E0,1.028101635E1,1.022355318E0
8.331356142E1,1.458113313E0,6.766220570E0,2.114144564E0
8.341361987E1,3.261002302E0,1.253642273E1,2.992843390E-1
8.351368465E1,1.194743156E0,8.121379852E0,1.422199249E0
8.361376207E1,1.865140080E0,1.007271385E1,3.232270956E0
8.371382066E1,1.113337755E0,1.024989033E1,1.838803053E0
8.381389058E1,6.536370516E-1,8.913885117E0,2.566662550E0
8.391395476E1,4.405465722E-1,9.950606346E0,2.039922237E0
8.401402517E1,3.830839694E-2,9.938634872E0,3.136500120E-1
8.411409028E1,4.381522834E-1,8.509252548E0,2.106961906E-1
8.421415470E1,8.691217303E-1,1.050368404E1,2.885101080E0
8.431589478E1,1.834014535E0,9.119792938E0,4.252232075E0
8.441596176E1,1.362342358E0,8.044763565E0,2.461314440E0
8.451603488E1,2.889889717E0,9.988914490E0,8.332076073E-1
8.461609119E1,1.922602654E0,8.655303001E0,2.291321039E0
8.471616671E1,2.942563772E0,1.072635078E1,1.249811411E0
8.481622619E1,1.304879785E0,8.803748131E0,1.125309110E0
8.491629717E1,2.394274712E0,9.076695442E0,1.709512234E0
8.501636525E1,1.424593568E0,1.188996887E1,3.148471355E0
8.511643030E1,1.431776285E0,9.380768776E0,2.796513081E0
8.521649362E1,9.313728809E-1,8.432636261E0,1.371919513E0
8.531656186E1,8.571503758E-1,9.680052757E0,1.546701550E0
8.541662758E1,6.895511150E-1,1.110225201E1,1.994430900E0
8.551669886E1,9.241901040E-1,6.533976078E0,1.711906433E0
8.561676361E1,7.398309112E-1,1.220122433E1,1.127703428E0
8.571682339E1,1.759791970E0,9.347249031E0,2.004008055E0
8.581691580E1,2.130904675E0,8.791776657E0,1.915419817E0
8.591696842E1,2.614548206E0,1.062100315E1,1.640078187E0
8.601703633E1,1.613741279E0,8.765439987E0,1.264177084E0
8.611710291E1,2.063864946E0,9.663292885E0,8.930644989E-1
8.621716786E1,2.073441982E0,9.670475960E0,1.745426297E0
8.631723434E1,1.781340480E0,9.179649353E0,1.972882390E0
8.641730092E1,1.134886265E0,1.006553173E1,2.559479713E0
8.651737063E1,1.170800328E0,9.996097565E0,1.704723716E0
8.661743448E1,8.140534163E-1,8.363202095E0,1.731060743E0
8.671749773E1,-2.274561077E-1,1.087479591E1,1.300091267E0
8.681757148E1,8.691217303E-1,9.531607628E0,1.577827096E0
8.691763589E1,1.007989645E0,9.263449669E0,1.671203852E0
8.701770811E1,1.659232497E0,1.050847244E1,2.059076309E0
8.711776969E1,1.585009933E0,9.610619545E0,1.517970204E0
8.721784057E1,1.632895470E0,1.027862167E1,1.460507631E0
8.731790332E1,2.439765930E0,8.724737167E0,1.948939681E0
8.741797423E1,1.889082789E0,9.545973778E0,1.972882390E0
8.751804278E1,2.085413456E0,9.828497887E0,2.075836182E0
8.761810533E1,2.193155766E0,8.968953133E0,2.102173328E0
8.771816995E1,1.551490068E0,9.038387299E0,2.995237827E0
8.781823950E1,1.577827096E0,1.045579815E1,1.556278586E0
8.791831585E1,1.532335877E-1,8.442213058E0,1.652049661E0
8.801837313E1,1.630501151E0,1.059466648E1,2.111750364E0
8.811844711E1,7.972934842E-1,1.060663700E1,2.650462151E0
8.821850692E1,5.291347504E-1,7.905895233E0,1.264177084E0
8.831857401E1,1.096577883E0,8.281796455E0,1.805283189E0
8.841864415E1,1.683175206E0,1.211981869E1,6.680026650E-1
8.851870696E1,1.889082789E0,9.706390381E0,9.241901040E-1
8.861878708E1,1.869928598E0,8.552350044E0,1.426987767E0
8.871884260E1,2.071047783E0,9.706390381E0,8.451790214E-1
8.881890942E1,1.637683988E0,9.586676598E0,6.296942830E-1
8.891898613E1,1.977671027E0,9.567522049E0,1.807677507E0
8.901905605E1,1.862745762E0,9.984126091E0,1.479661822E0
8.911912072E1,1.161223292E0,1.035044956E1,2.097384691E0
8.921918784E1,8.930644989E-1,9.239506721E0,1.953728199E0
8.931924532E1,4.908263385E-1,9.454991341E0,1.901054144E0
8.941932350E1,7.398309112E-1,9.603436470E0,7.877163887E-1
8.951938552E1,5.985686779E-1,9.186832428E0,2.106961727E0
8.961945953E1,1.544307232E0,9.895537376E0,2.480468750E0
8.971952132E1,1.994430900E0,9.962577820E0,1.869928598E0
8.981958653E1,2.643279314E0,9.720755577E0,1.817254543E0
8.991966191E1,1.790917516E0,9.043175697E0,1.470084786E0
9.001972230E1,1.719089270E0,9.718361855E0,1.446141958E0
9.011978475E1,2.200338602E0,8.885153770E0,1.585009933E0
9.021986327E1,2.011190891E0,9.641744614E0,1.551490068E0
9.031992258E1,1.596981287E0,8.894730568E0,1.960911036E0
9.042000023E1,1.352765322E0,9.545973778E0,1.977671027E0
9.052005505E1,3.064671755E-1,9.301757812E0,-1.482056141E0
9.062012600E1,5.985686928E-2,5.281770229E0,1.175588965E0
9.072018331E1,-3.155654192E0,1.718371010E1,-7.245075703E0
9.082025186E1,3.543526649E0,7.166064739E0,2.741444588E0
9.092032002E1,-5.123748183E-1,9.340065956E0,3.457332850E0
9.102039756E1,2.911438227E0,1.218925285E1,4.812492430E-1
9.112045714E1,1.886688590E0,7.834067345E0,1.903448462E0
9.122052389E1,1.266571403E0,1.005116558E1,1.884294271E0
9.132059632E1,2.051893473E0,9.397528648E0,9.624984860E-1
9.142066310E1,2.279349566E0,9.534002304E0,1.486844659E0
9.152072372E1,1.529941559E0,8.614601135E0,2.147664547E0
9.162135173E1,2.200338602E0,1.166969585E1,1.431776285E0
9.172143318E1,9.840469360E-1,9.227535248E0,2.545114040E0
9.182149749E1,4.501236677E-1,9.397528648E0,2.135693073E0
9.192155490E1,5.171633363E-1,9.323306084E0,2.300898075E0
9.202163209E1,9.050358534E-1,9.507665634E0,8.739103079E-1
9.212169287E1,8.763045669E-1,9.387951851E0,1.575432777E0
9.222175475E1,1.496421814E0,9.435836792E0,3.134105682E0
9.232182663E1,1.905842781E0,9.653716087E0,1.707117915E0
9.242188917E1,1.963305354E0,9.047964096E0,1.814860344E0
9.252196086E1,2.320052385E0,9.581888199E0,1.510787368E0
9.262202627E1,1.489238977E0,9.962577820E0,1.517970204E0
9.272208359E1,1.585009933E0,8.887548447E0,1.644866824E0
9.282215700E1,2.482862949E0,1.029538155E1,1.649655342E0
9.292223021E1,1.347976685E0,9.445414543E0,1.707117915E0
9.302229410E1,8.284190893E-1,1.080296803E1,1.364736676E0
9.312235955E1,4.525179267E-1,8.420664787E0,1.879505754E0
9.322242613E1,8.643332124E-1,1.020200539E1,3.639297783E-1
9.332249448E1,5.506832004E-1,9.682447433E0,8.930644989E-1
9.342258006E1,1.036720991E0,9.512454033E0,1.707117915E0
9.352263320E1,1.575432777E0,1.035523891E1,1.889082789E0
9.362269565E1,1.625712633E0,9.653716087E0,2.164424419E0
9.372275784E1,2.099778891E0,9.845257759E0,1.189954638E0
9.382283652E1,1.948939681E0,8.940221786E0,1.810071707E0
9.392289607E1,1.975276709E0,9.438231468E0,1.719089270E0
9.402297056E1,1.948939681E0,1.008229160E1,1.285725594E0
9.412303027E1,1.704723716E0,9.009655952E0,2.097384691E0
9.422310779E1,1.913025618E0,1.008229160E1,2.355966330E0
9.432316570E1,1.221080184E0,9.514847755E0,1.486844659E0
9.442324185E1,4.285751879E-1,9.622590065E0,1.144463301E0
9.452329896E1,7.254652381E-1,9.727938652E0,1.333611012E0
9.462336901E1,7.182824612E-1,9.620196342E0,1.175588965E0
9.472342666E1,7.972934842E-1,9.055147171E0,1.644866824E0
9.482350304E1,1.714300752E0,1.023552513E1,2.549902678E0
9.492356762E1,2.197944164E0,1.012299347E1,1.103760719E0
9.502363467E1,1.513181686E0,8.854028702E0,1.975276709E0
9.512370211E1,2.521171331E0,1.065452290E1,8.044763207E-1
9.522376826E1,1.752609134E0,9.292180061E0,1.908236980E0
9.532384518E1,1.709512234E0,9.079090118E0,1.302485466E0
9.542390316E1,2.336812258E0,9.751881599E0,1.565855742E0
9.552397040E1,1.549095750E0,1.023791885E1,2.425400496E0
9.562404379E1,1.075029373E0,9.792584419E0,1.278542757E0
9.572410007E1,6.536370516E-1,8.913885117E0,8.571503758E-1
9.582416919E1,6.895511150E-1,1.053720379E1,3.950553536E-1
9.592424820E1,1.221080184E0,1.007750225E1,1.144463301E0
9.602431431E1,8.643332124E-1,9.684841156E0,2.274561167E0
9.612437866E1,1.642472506E0,9.464568138E0,2.813272953E0
9.622444515E1,1.752609134E0,1.027622795E1,1.862745762E0
9.632451309E1,1.982459545E0,9.268238068E0,1.235445857E0
9.642458534E1,1.980065227E0,8.063917160E0,1.776551962E0
9.652464025E1,2.224281311E0,1.027143860E1,1.410227895E0
9.662471814E1,1.735849261E0,8.559532166E0,9.409499764E-1
9.672477875E1,2.102173328E0,9.718361855E0,2.348783493E0
9.682484060E1,1.659232497E0,1.083648777E1,2.011190891E0
9.692491072E1,1.175588965E0,8.545166969E0,2.700742006E0
9.702498014E1,4.381522834E-1,1.108070374E1,1.755003452E0
9.712504945E1,1.103760719E0,9.239506721E0,1.139674783E0
9.722511530E1,4.788549542E-1,9.088666916E0,1.412622094E0
9.732519242E1,1.484450340E0,9.696812630E0,2.482862949E0
9.742525583E1,1.517970204E0,8.959376335E0,2.844398499E0
9.752531408E1,1.850774407E0,9.426259995E0,2.897072554E0
9.762538132E1,2.248224020E0,9.967366219E0,1.690358043E0
9.772544017E1,2.255406857E0,8.561926842E0,1.395862222E0
9.782551499E1,1.683175206E0,1.061860847E1,2.262589693E0
9.792558247E1,1.994430900E0,9.421471596E0,1.429382086E0
9.802565575E1,2.051893473E0,8.401510239E0,1.726272106E0
9.812572110E1,2.226675510E0,1.075747681E1,1.379102230E0
9.822578198E1,1.297696948E0,1.054678059E1,1.367130876E0
9.832585349E1,5.913859010E-1,8.693612099E0,2.066259146E0
9.842593200E1,7.110996246E-1,9.924268723E0,7.326480746E-1
9.852598389E1,6.464542150E-1,9.773429871E0,5.530774593E-1
9.862606240E1,8.763045669E-1,9.110215187E0,2.094990492E0
9.872611089E1,1.417410731E0,9.624984741E0,2.748627424E0
9.882621087E1,1.666415215E0,9.850046158E0,2.595393896E0
9.892626991E1,1.879505754E0,9.488511086E0,1.948939681E0
9.902634056E1,2.382303476E0,9.842864037E0,1.857957244E0
9.912640381E1,2.262589693E0,8.590658188E0,1.977671027E0
9.922647292E1,1.869928598E0,9.330489159E0,1.458113313E0
9.932654444E1,2.104567528E0,9.452596664E0,1.783734679E0
9.942661889E1,1.862745762E0,9.653716087E0,2.248224020E0
9.952669300E1,1.561067224E0,9.771035194E0,2.207521439E0
9.962673935E1,1.039115310E0,8.219545364E0,2.059076309E0
9.972680687E1,4.525179267E-1,1.185644913E1,5.913859010E-1
9.982687382E1,1.075029373E0,8.676852226E0,3.208328187E-1
9.992694483E1,6.919454336E-1,1.012538815E1,1.132491946E0
1.000270078E2,1.326428294E0,9.431048393E0,1.802888989E0
1.001270783E2,1.582615614E0,9.488511086E0,2.372726440E0
1.002271476E2,1.822043180E0,1.036721039E1,2.600182533E0
1.003272140E2,1.867534399E0,8.842057228E0,1.786128998E0
1.004272813E2,2.001613855E0,9.280209541E0,1.838803053E0
1.005273472E2,2.097384691E0,9.234718323E0,6.105400920E-1
1.006274110E2,1.527547359E0,9.893143654E0,1.333611012E0
1.007274740E2,2.135693073E0,9.457385063E0,2.506805658E0
1.008275512E2,1.982459545E0,9.957788467E0,1.814860344E0
1.009276166E2,1.158828974E0,9.445414543E0,1.709512234E0
1.010276861E2,9.337671995E-1,1.023073673E1,1.812466025E0
1.011277503E2,6.656084061E-1,1.016609097E1,1.328822494E0
1.012278136E2,7.877163887E-1,7.568302631E0,8.954587579E-1
1.013278856E2,1.359948039E0,1.189954567E1,1.177983165E0
1.014279550E2,1.745426297E0,9.014444351E0,2.063864946E0
1.015280153E2,1.379102230E0,9.972154617E0,2.032739401E0
1.016280822E2,2.200338602E0,9.155706406E0,1.307274103E0
1.017281506E2,2.695953369E0,9.478934288E0,1.024749637E0
1.018282205E2,1.805283189E0,9.629773140E0,1.508393168E0
1.019282840E2,1.946545362E0,9.201197624E0,1.369525194E0
1.020283503E2,2.116539001E0,9.835680962E0,2.403851986E0
1.021284169E2,1.671203852E0,1.043903828E1,2.396669149E0
1.022284979E2,1.075029373E0,8.549955368E0,2.116539001E0
1.023285554E2,5.387118459E-1,1.080536175E1,1.862745762E0
1.024286292E2,1.053480864E0,9.083878517E0,9.529213905E-1
1.025286871E2,1.027143836E0,9.344854355E0,1.632895470E0
1.026287614E2,1.067846537E0,9.869200706E0,1.455719113E0
1.027288212E2,1.553884387E0,9.605830193E0,2.001613855E0
1.028288935E2,1.968093872E0,1.000088596E1,2.190761566E0
1.029289547E2,1.917814136E0,9.979337692E0,6.081457734E-1
1.030290229E2,2.197944164E0,8.530800819E0,1.714300752E0
1.031290985E2,2.281744003E0,1.023791885E1,1.118126392E0
1.032291627E2,1.956122518E0,9.718361855E0,1.903448462E0
1.033292276E2,2.066259146E0,8.655303001E0,1.992036581E0
1.034292993E2,1.647261024E0,1.073832226E1,1.400650740E0
1.035293610E2,7.925049663E-1,8.825297356E0,1.201925993E0
1.036294286E2,2.394274808E-2,1.064015770E1,1.070240855E0
1.037294919E2,9.648927450E-1,9.198803902E0,1.254600048E0
1.038295642E2,8.906702399E-1,9.256266594E0,9.481328130E-1
1.039296258E2,7.494080067E-1,1.050368404E1,1.268965602E0
1.040297073E2,1.869928598E0,9.000079155E0,2.116539001E0
1.041297585E2,1.798100352E0,1.024031353E1,1.345582485E0
1.042298276E2,2.281744003E0,9.311334610E0,9.098244309E-1
1.043298996E2,2.221887112E0,9.507665634E0,2.518777132E0
1.044299685E2,1.745426297E0,9.840469360E0,1.422199249E0
1.045300352E2,2.197944164E0,8.911490440E0,8.595446348E-1
1.046301001E2,1.666415215E0,9.787795067E0,1.573038578E0
1.047301595E2,9.792584181E-1,1.070001411E1,1.891477108E0
1.048302360E2,1.108549237E0,8.889942169E0,1.139674783E0
1.049303059E2,9.170072675E-1,1.011820507E1,1.790917516E0
1.050303627E2,9.505270720E-1,9.526819229E0,1.936968327E0
1.051304341E2,1.328822494E0,9.548367500E0,2.212309837E0
1.052305090E2,1.268965602E0,8.818114281E0,2.904255390E0
1.053305717E2,1.570644259E0,1.042227840E1,2.317657948E0
1.054306380E2,2.341600657E0,9.150918007E0,2.303292274E0
1.055307039E2,2.078230619E0,9.445414543E0,1.666415215E0
1.056307689E2,1.975276709E0,9.040781975E0,2.286532402E0
1.057308368E2,2.142875910E0,9.926663399E0,1.228263021E0
1.058309001E2,1.841197371E0,9.323306084E0,1.865140080E0
1.059309676E2,1.944151163E0,9.581888199E0,1.695146561E0
1.060310379E2,1.616135478E0,9.986519814E0,6.823683381E-1
1.061311858E2,9.026415944E-1,8.959376335E0,1.034326673E0
1.062312547E2,1.101366431E-1,1.012778282E1,1.149251938E0
1.063313331E2,9.170072675E-1,9.804554939E0,6.680026650E-1
1.064313916E2,1.486844659E0,8.801354408E0,1.709512234E0
1.065314676E2,1.072635174E0,1.046537495E1,3.249030828E0
1.066315271E2,1.934574008E0,9.572310448E0,8.116591573E-1
1.067315894E2,1.015172482E0,8.054340363E0,1.307274103E0
1.068316550E2,2.705530643E0,1.103042412E1,-8.236305118E-1
1.069317250E2,1.982459545E0,9.222746849E0,1.132491946E0
1.070317897E2,1.640078187E0,9.833286285E0,1.927391171E0
1.071318596E2,2.418217659E0,9.146129608E0,1.877111435E0
1.072319289E2,1.407833576E0,9.574705124E0,2.339206457E0
1.073319959E2,1.781340480E0,1.058269501E1,1.798100352E0
1.074320613E2,9.098244309E-1,9.452596664E0,1.977671027E0
1.075321245E2,8.451790214E-1,8.964164734E0,3.198751211E0
1.076321912E2,8.451790214E-1,9.390345573E0,1.946545362E0
1.077322555E2,7.326480746E-1,8.363202095E0,2.047105074E0
1.078323325E2,2.207521439E0,1.185644913E1,2.162030220E0
1.079323931E2,1.889082789E0,8.415876389E0,1.063058019E0
1.080324602E2,1.843591571E0,9.972154617E0,2.379909277E0
1.081325354E2,2.415823221E0,9.557945251E0,5.650488734E-1
1.082326052E2,1.829225898E0,9.668081284E0,2.473285913E0
1.083326686E2,1.987248063E0,9.134158134E0,1.333611012E0
1.084327336E2,1.963305354E0,9.660899162E0,1.410227895E0
1.085327974E2,1.517970204E0,9.658504486E0,1.790917516E0
1.086328624E2,1.338399649E0,1.126745701E1,1.795706153E0
1.087329308E2,8.379961550E-2,8.423058510E0,2.648067951E0
1.088330011E2,1.103760719E0,9.814132690E0,1.565855742E0
1.089330675E2,1.233051538E0,9.660899162E0,1.312062621E0
1.090331328E2,5.985686779E-1,8.492492676E0,2.073441982E0
1.091332052E2,1.927391171E0,1.081493950E1,2.176395893E0
1.092332684E2,2.217098475E0,8.849239349E0,1.714300752E0
1.093333328E2,1.666415215E0,9.663292885E0,1.594586968E0
1.094334115E2,1.814860344E0,9.833286285E0,1.525153041E0
1.095334715E2,2.650462151E0,8.619389534E0,1.443747759E0
1.096335462E2,1.850774407E0,1.007510853E1,2.118933201E0
1.097336038E2,1.539518714E0,9.148524284E0,2.154847383E0
1.098336737E2,1.529941559E0,9.426259995E0,1.956122518E0
1.099337422E2,1.288119793E0,1.032411289E1,1.786128998E0
1.100338035E2,3.471698463E-1,9.531607628E0,1.738243461E0
1.101338753E2,1.266571403E0,9.536396980E0,1.417410731E0
1.102339376E2,8.284190893E-1,9.466962814E0,1.369525194E0
1.103340033E2,9.505270720E-1,1.000088596E1,1.891477108E0
1.104340787E2,1.824437380E0,9.512454033E0,2.755810261E0
1.105341391E2,1.759791970E0,9.680052757E0,1.515576005E0
1.106342069E2,2.176395893E0,8.901913643E0,2.564268351E0
1.107342752E2,1.994430900E0,9.368797302E0,1.223474383E0
1.108343395E2,1.666415215E0,9.682447433E0,7.925049663E-1
1.109344075E2,1.972882390E0,9.797372818E0,1.613741279E0
1.110344794E2,1.561067224E0,9.500482559E0,1.996825218E0
1.111345430E2,8.308133483E-1,9.727938652E0,1.764580488E0
1.112346089E2,1.142069101E0,9.730332375E0,1.453324795E0
1.113346775E2,3.974496126E-1,8.880365372E0,1.769369125E0
1.114347505E2,7.110996246E-1,9.914691925E0,5.674431324E-1
1.115348098E2,7.518022656E-1,9.787795067E0,9.146129489E-1
1.116348802E2,1.376708031E0,9.284997940E0,2.162030220E0
1.117349485E2,1.865140080E0,1.041030693E1,1.723877907E0
1.118350109E2,1.860351562E0,9.076695442E0,2.145270348E0
1.119350785E2,2.518777132E0,9.850046158E0,8.308133483E-1
1.120351566E2,2.030344963E0,9.191620827E0,2.020767927E0
1.121352163E2,1.977671027E0,9.289786339E0,1.857957244E0
1.122352805E2,2.454131603E0,1.011341667E1,2.209915638E0
1.123353500E2,1.482056141E0,8.497281075E0,2.066259146E0
1.124354143E2,1.750214934E0,1.030735302E1,2.068653345E0
1.125354872E2,4.285751879E-1,9.842864037E0,1.441353440E0
1.126355485E2,1.103760719E0,9.366402626E0,1.661626697E0
1.127356112E2,6.177229285E-1,1.015890789E1,2.063864946E0
1.128356955E2,1.125309110E0,8.825297356E0,2.035133600E0
1.129357591E2,1.177983165E0,8.995290756E0,2.688770533E0
1.130358164E2,1.553884387E0,1.081254482E1,2.032739401E0
1.131358916E2,2.049499273E0,8.961771011E0,2.123721838E0
1.132359511E2,2.341600657E0,9.560338974E0,1.041509509E0
1.133361378E2,2.147664547E0,9.395133972E0,1.297696948E0
1.134362017E2,2.245829821E0,9.107821465E0,9.888355136E-1
1.135362629E2,2.015979290E0,1.036721039E1,1.680780888E0
1.136363312E2,1.721483588E0,9.016839027E0,2.698347807E0
1.137363933E2,2.126116037E0,1.004158878E1,1.855562925E0
1.138364649E2,5.913859010E-1,9.040781975E0,1.687963724E0
1.139365356E2,5.746259689E-1,1.011102295E1,1.405439258E0
1.140366052E2,5.363175869E-1,1.043664360E1,1.180377483E0
1.141366671E2,2.633702159E-1,9.045570374E0,1.757397652E0
1.142367336E2,7.733507752E-1,9.246688843E0,2.760598898E0
1.143368026E2,2.099778891E0,1.105197239E1,2.391880512E0
1.144368679E2,1.321639657E0,8.154899597E0,1.977671027E0
1.145369352E2,1.929785490E0,1.034566116E1,2.097384691E0
1.146370019E2,2.343995094E0,8.961771011E0,1.649655342E0
1.147370668E2,1.702329397E0,9.296969414E0,1.245022893E0
1.148371403E2,1.783734679E0,9.397528648E0,2.042316437E0
1.149372041E2,2.099778891E0,9.692024231E0,1.905842781E0
1.150372721E2,1.673598051E0,9.620196342E0,2.219492674E0
1.151373372E2,9.768640995E-1,1.008468533E1,1.867534399E0
1.152374048E2,7.877163887E-1,9.701601982E0,2.054287672E0
1.153374861E2,-1.197137404E-2,8.660092354E0,1.539518714E0
1.154375445E2,1.022355318E0,1.094183540E1,1.743032098E0
1.155376211E2,1.120520592E0,9.115004539E0,1.867534399E0
1.156376763E2,6.943396926E-1,9.153312683E0,3.359167576E0
1.157377398E2,2.157241583E0,1.108070374E1,7.182824612E-1
1.158378132E2,2.504411459E0,8.516435623E0,9.601042271E-1
1.159378768E2,1.719089270E0,1.003919411E1,1.927391171E0
1.160379538E2,1.640078187E0,9.553156853E0,1.324033976E0
1.161380095E2,2.221887112E0,9.304151535E0,2.537931204E0
1.162380761E2,2.056682110E0,8.921068192E0,2.185972929E0
1.163381495E2,2.171607256E0,9.739910126E0,2.358360767E0
1.164382154E2,1.218685865E0,9.988914490E0,1.759791970E0
1.165382804E2,4.836435020E-1,9.938634872E0,1.661626697E0
1.166383479E2,9.672870040E-1,9.052753448E0,7.063110471E-1
1.167384129E2,4.501236677E-1,1.045579815E1,1.245022893E0
1.168384819E2,1.276148438E0,9.744698524E0,1.711906433E0
1.169385463E2,9.313728809E-1,8.039975166E0,2.288926601E0
1.170386190E2,2.334417820E0,1.047495270E1,3.019180536E0
1.171386857E2,2.214704275E0,9.534002304E0,1.491633177E0
1.172387464E2,1.695146561E0,9.306546211E0,1.915419817E0
1.173388165E2,2.346389294E0,9.241900444E0,1.585009933E0
1.174388811E2,1.671203852E0,9.658504486E0,1.410227895E0
1.175389635E2,1.908236980E0,9.270631790E0,1.685569525E0
1.176390140E2,2.358360767E0,1.014214802E1,1.865140080E0
1.177390807E2,1.098972082E0,9.184437752E0,1.517970204E0
1.178391656E2,9.337671995E-1,1.070719719E1,1.407833576E0
1.179392160E2,6.057515144E-1,9.201197624E0,1.467690468E0
1.180392876E2,7.637736797E-1,9.452596664E0,9.026415944E-1
1.181393522E2,1.470084786E0,1.057311726E1,3.076643229E0
1.182394189E2,1.106154919E0,9.045570374E0,2.169213057E0
1.183394849E2,1.589798450E0,8.964164734E0,3.514795303E0
1.184395691E2,1.482056141E0,1.156434727E1,4.022381604E-1
1.185396297E2,1.838803053E0,8.133351326E0,7.972934842E-1
1.186396926E2,2.339206457E0,1.042706680E1,4.213923812E-1
1.187397607E2,1.798100352E0,9.000079155E0,1.221080184E0
1.188398249E2,2.035133600E0,8.997684479E0,1.300091267E0
1.189398946E2,2.413429022E0,9.818921089E0,1.441353440E0
1.190399596E2,1.778946161E0,9.859623909E0,1.881899953E0
1.191400288E2,1.371919513E0,9.387951851E0,1.611346960E0
1.192400910E2,1.192348838E0,1.049171257E1,1.884294271E0
1.193401635E2,1.388679445E-1,8.786988258E0,1.350371003E0
1.194402272E2,1.103760719E0,1.033847904E1,1.015172482E0
1.195402900E2,1.297696948E0,8.897125244E0,1.723877907E0
1.196403643E2,9.696813226E-1,9.428654671E0,2.492439985E0
1.197404201E2,2.030344963E0,9.706390381E0,2.035133600E0
1.198405015E2,2.106961727E0,9.914691925E0,1.956122518E0
1.199405626E2,2.109356165E0,9.282603264E0,1.350371003E0
1.200406260E2,2.468497276E0,9.050358772E0,1.376708031E0
1.201406947E2,2.185972929E0,9.668081284E0,1.733454943E0
1.202407642E2,2.209915638E0,9.354432106E0,1.953728199E0
1.203408281E2,2.068653345E0,9.500482559E0,1.879505754E0
1.204408942E2,1.537124395E0,9.021627426E0,2.061470509E0
1.205409676E2,1.120520592E0,1.003919411E1,1.664021015E0
1.206410773E2,7.685621977E-1,9.794978142E0,1.197137356E0
1.207411423E2,5.363175869E-1,9.536396980E0,1.379102230E0
1.208412151E2,1.221080184E0,9.184437752E0,7.374366522E-1
1.209412781E2,1.034326673E0,1.054917526E1,1.300091267E0
1.210413496E2,1.431776285E0,8.894730568E0,2.588211060E0
1.211414123E2,1.216291547E0,1.008708000E1,1.850774407E0
1.212414797E2,2.559479713E0,9.715967178E0,1.211503029E0
1.213415536E2,2.157241583E0,9.225140572E0,1.625712633E0
1.214416122E2,2.059076309E0,1.012299347E1,1.611346960E0
1.215416804E2,2.097384691E0,9.292180061E0,1.405439258E0
1.216417443E2,1.848380208E0,9.653716087E0,2.092596292E0
1.217418130E2,2.025556564E0,1.008468533E1,1.649655342E0
1.218418944E2,1.386285067E0,9.026415825E0,2.008796453E0
1.219419564E2,9.672870040E-1,1.013017654E1,2.150058746E0
1.220420270E2,5.913859010E-1,9.814132690E0,1.015172482E0
1.221420845E2,8.212362528E-1,8.451789856E0,1.853168726E0
1.222421541E2,7.374366522E-1,1.084606457E1,1.075029373E0
1.223422178E2,1.350371003E0,9.268238068E0,2.138087511E0
1.224422944E2,1.606558442E0,1.018045616E1,1.869928598E0
1.225423521E2,2.317657948E0,9.771035194E0,1.417410731E0
1.226424168E2,1.908236980E0,9.184437752E0,1.338399649E0
1.227424860E2,2.188367128E0,8.968953133E0,2.015979290E0
1.228425565E2,2.303292274E0,9.682447433E0,1.620923996E0
1.229426240E2,2.152452946E0,9.208380699E0,1.745426297E0
1.230426871E2,2.396669149E0,9.514847755E0,2.952140808E0
1.231427545E2,1.611346960E0,9.550762177E0,1.106154919E0
1.232428213E2,5.123748183E-1,9.450202942E0,1.350371003E0
1.233428883E2,7.805336118E-1,1.008947372E1,1.127703428E0
1.234429559E2,2.490045726E-1,9.591464996E0,9.696813226E-1
1.235430247E2,1.098972082E0,9.287391663E0,8.475732803E-1
1.236430865E2,1.182771802E0,1.024270725E1,1.376708031E0
1.237431540E2,1.606558442E0,9.205986977E0,2.037527800E0
1.238432305E2,1.755003452E0,1.004877090E1,1.127703428E0
1.239432910E2,1.659232497E0,8.765439987E0,1.010383964E0
1.240433591E2,2.808484316E0,1.111901188E1,3.543526828E-1
1.241434344E2,2.243435383E0,8.511647224E0,2.384697676E0
1.242434948E2,1.829225898E0,8.913885117E0,2.080624819E0
1.243435648E2,2.229069948E0,9.543579102E0,1.601769805E0
1.244436342E2,1.819648862E0,1.100169277E1,1.546701550E0
1.245437000E2,1.125309110E0,9.016839027E0,1.999219418E0
1.246437649E2,1.005595446E0,1.041030693E1,1.546701550E0
1.247438291E2,6.632141471E-1,9.237112045E0,9.194015265E-1
1.248438962E2,5.004034638E-1,8.849239349E0,1.546701550E0
1.249439628E2,1.513181686E0,1.084367085E1,1.072635174E0
1.250440291E2,1.259388566E0,7.460560322E0,2.865947008E0
1.251441011E2,1.515576005E0,1.161223316E1,1.443747759E0
1.252441695E2,2.197944164E0,9.103033066E0,3.759011328E-1
1.253442383E2,1.398256540E0,8.569109917E0,3.739857197E0
1.254443039E2,3.792531252E0,1.141590214E1,1.261782765E0
1.255443815E2,1.668809533E0,8.763046265E0,1.240234375E0
1.256444300E2,2.226675510E0,9.830892563E0,1.347976685E0
1.257445026E2,1.805283189E0,9.474145889E0,1.489238977E0
1.258445669E2,1.759791970E0,9.634561539E0,1.233051538E0
1.259446433E2,6.943396926E-1,9.773429871E0,3.328042030E-1
1.260447016E2,6.249057055E-1,1.026904488E1,1.240234375E0
1.261447849E2,9.553156495E-1,8.808537483E0,1.087000728E0
1.262448381E2,1.163617611E0,9.790189743E0,1.166011810E0
1.263449037E2,1.321639657E0,9.452596664E0,2.269772530E0
1.264449694E2,1.410227895E0,9.601041794E0,1.977671027E0
1.265450383E2,2.135693073E0,9.759063721E0,1.520364523E0
1.266451007E2,1.860351562E0,1.036960411E1,1.288119793E0
1.267451680E2,1.865140080E0,8.588263512E0,1.915419817E0
1.268452480E2,2.746233225E0,9.699207306E0,1.259388566E0
1.269453146E2,1.711906433E0,9.555550575E0,1.359948039E0
1.270453746E2,2.293715239E0,8.971347809E0,1.740637779E0
1.271454393E2,2.099778891E0,1.091310501E1,2.231464148E0
1.272455072E2,1.410227895E0,8.600234985E0,2.071047783E0
1.273455795E2,1.395862222E0,1.016609097E1,2.142875910E0
1.274456398E2,4.549122155E-1,9.433443069E0,1.223474383E0
1.275457080E2,1.125309110E0,8.786988258E0,1.168406129E0
1.276457761E2,1.027143836E0,9.507665634E0,1.070240855E0
1.277458430E2,9.409499764E-1,9.668081284E0,1.036720991E0
1.278460370E2,9.912297726E-1,1.021158218E1,1.343188167E0
1.279461065E2,1.932179809E0,9.356825829E0,1.209108829E0
1.280461760E2,1.850774407E0,1.038875866E1,1.766974807E0
1.281462366E2,2.267378330E0,9.201197624E0,1.324033976E0
1.282463110E2,1.738243461E0,8.602629662E0,1.920208454E0
1.283463717E2,2.320052385E0,1.000567436E1,9.241901040E-1
1.284464375E2,2.121327400E0,9.636956215E0,1.441353440E0
1.285465096E2,2.427794695E0,9.466962814E0,2.221887112E0
1.286465701E2,1.534730196E0,9.629773140E0,2.588211060E0
1.287466505E2,1.091789365E0,9.756669998E0,2.415823221E0
1.288467135E2,5.004034638E-1,9.383162498E0,2.255406857E0
1.289467813E2,9.672870040E-1,9.632167816E0,1.192348838E0
1.290468432E2,4.309694767E-1,9.215563774E0,1.848380208E0
1.291469097E2,1.149251938E0,9.536396980E0,1.436564922E0
1.292469751E2,1.513181686E0,9.890748978E0,1.996825218E0
1.293470467E2,1.589798450E0,9.651321411E0,2.195549965E0
1.294471135E2,2.109356165E0,1.002722263E1,1.810071707E0
1.295471788E2,2.109356165E0,8.521224022E0,1.546701550E0
1.296472402E2,1.759791970E0,1.050368404E1,7.972934842E-1
1.297473067E2,2.116539001E0,9.222746849E0,1.371919513E0
1.298473770E2,2.195549965E0,9.464568138E0,2.332023621E0
1.299474500E2,2.174001455E0,9.407105446E0,1.374313712E0
1.300475117E2,1.388679385E0,1.012299347E1,1.592192769E0
1.301475805E2,1.460507631E0,9.294574738E0,1.898659945E0
1.302476560E2,6.680026650E-1,9.749486923E0,8.667274714E-1
1.303477154E2,7.733507752E-1,1.009186840E1,9.553156495E-1
1.304477815E2,1.022355318E0,9.854835510E0,4.166038036E-1
1.305478472E2,1.182771802E0,9.318517685E0,1.709512234E0
1.306479109E2,1.391073704E0,9.665687561E0,2.181184292E0
1.307479807E2,1.520364523E0,1.016130257E1,1.965699673E0
1.308480499E2,2.480468750E0,9.158101082E0,1.350371003E0
1.309481162E2,2.336812258E0,9.739910126E0,1.209108829E0
1.310481859E2,1.929785490E0,8.734314919E0,2.015979290E0
1.311482499E2,1.862745762E0,9.493299484E0,1.134886265E0
1.312483227E2,1.984853864E0,9.955394745E0,1.769369125E0
1.313483858E2,2.085413456E0,9.481328011E0,1.898659945E0
1.314484587E2,1.664021015E0,9.742303848E0,1.850774407E0
1.315485231E2,7.661679387E-1,9.557945251E0,2.008796453E0
1.316485889E2,6.608198285E-1,9.878777504E0,1.575432777E0
1.317486487E2,9.265843630E-1,9.074301720E0,1.381496549E0
1.318487198E2,1.043903828E0,9.459779739E0,1.834014535E0
1.319487992E2,1.266571403E0,9.215563774E0,2.116539001E0
1.320488578E2,1.503604531E0,1.015411949E1,1.845985889E0
1.321489209E2,2.145270348E0,9.411893845E0,1.465296149E0
1.322489973E2,1.975276709E0,1.068325424E1,1.237840056E0
1.323490604E2,1.800494671E0,8.976136208E0,1.606558442E0
1.324491279E2,1.946545362E0,9.524425507E0,1.606558442E0
1.325492000E2,2.233858347E0,9.778218269E0,1.733454943E0
1.326492543E2,1.984853864E0,9.450202942E0,2.233858347E0
1.327493267E2,1.541913033E0,9.763853073E0,2.020767927E0
1.328493953E2,1.326428294E0,9.909903526E0,1.992036581E0
1.329494610E2,7.829278708E-1,9.648927689E0,2.257801056E0
1.330495256E2,7.422251701E-1,8.928250313E0,1.678386688E0
1.331496035E2,1.415016413E0,9.826104164E0,5.243461728E-1
1.332496637E2,1.051086664E0,9.222746849E0,1.256994247E0
1.333497334E2,1.426987767E0,9.814132690E0,2.372726440E0
1.334498028E2,1.853168726E0,9.459779739E0,2.116539001E0
1.335498621E2,2.255406857E0,1.019961071E1,2.205127001E0
1.336499277E2,2.399063349E0,9.826104164E0,2.118933201E0
1.337499998E2,1.944151163E0,8.937828064E0,2.394274712E0
1.338500676E2,2.205127001E0,8.966559410E0,2.059076309E0
1.339501326E2,1.965699673E0,9.301757812E0,2.147664547E0
1.340502099E2,1.936968327E0,9.055147171E0,2.762993097E0
1.341502664E2,1.537124395E0,9.287391663E0,2.695953369E0
1.342503314E2,1.039115310E0,1.024749660E1,2.315263748E0
1.343503979E2,8.260248303E-1,9.150918007E0,1.910631299E0
1.344504651E2,9.241901040E-1,9.847652435E0,2.523565531E0
1.345505419E2,2.944957912E-1,9.237112045E0,1.462901950E0
1.346505974E2,1.608952641E0,8.937828064E0,1.845985889E0
1.347506636E2,1.065452337E0,9.325700760E0,1.970488191E0
1.348507340E2,1.934574008E0,9.258660316E0,1.429382086E0
1.349508047E2,1.881899953E0,9.601041794E0,1.781340480E0
1.350508710E2,1.699935079E0,9.545973778E0,1.630501151E0
1.351509356E2,2.569056988E0,9.850046158E0,1.917814136E0
1.352510170E2,1.920208454E0,9.620196342E0,2.315263748E0
1.353510723E2,2.502017260E0,8.930644989E0,1.347976685E0
1.354511410E2,2.123721838E0,9.768641472E0,2.516382933E0
1.355512050E2,1.443747759E0,1.011341667E1,2.695953369E0
1.356512742E2,1.834014535E0,9.395133972E0,1.501210332E0
1.357513415E2,6.464542150E-1,9.239506721E0,1.355159521E0
1.358514120E2,1.891477108E-1,1.046776962E1,1.122914910E0
1.359514729E2,1.558672905E0,1.088437366E1,2.372726440E0
1.360515587E2,1.240234375E0,7.580274105E0,2.454131603E0
1.361516069E2,9.265843630E-1,1.130815983E1,1.845985889E0
1.362516870E2,1.862745762E0,6.634535313E0,1.781340480E0
1.363517436E2,2.346389294E0,1.269923401E1,1.367130876E0
1.364518082E2,1.927391171E0,7.642525196E0,1.041509509E0
1.365518789E2,3.160442829E0,1.089155579E1,4.702355862E0
1.366519456E2,7.446194887E-1,8.197997093E0,1.747820616E0
1.367520081E2,2.341600657E0,8.286584854E0,1.656838179E0
1.368520776E2,2.324840784E0,1.009426212E1,2.643279314E0
1.369521442E2,1.223474383E0,9.759063721E0,1.225868702E0
1.370522213E2,1.225868702E0,9.905115128E0,2.071047783E0
1.371522830E2,1.077423692E0,9.107821465E0,1.625712633E0
1.372523460E2,2.394274771E-1,1.031214142E1,1.376708031E0
1.373524190E2,8.044763207E-1,9.392740250E0,1.817254543E0
1.374524832E2,7.087053657E-1,9.756669998E0,1.869928598E0
1.375525517E2,1.223474383E0,9.397528648E0,2.073441982E0
1.376526165E2,1.920208454E0,1.009186840E1,1.132491946E0
1.377526825E2,1.786128998E0,9.131764412E0,1.273754239E0
1.378527558E2,2.516382933E0,1.005595398E1,1.407833576E0
1.379528203E2,1.697540879E0,9.433443069E0,2.008796453E0
1.380528875E2,2.111750364E0,9.950606346E0,1.175588965E0
1.381529499E2,2.233858347E0,9.296969414E0,2.150058746E0
1.382530270E2,1.881899953E0,9.352037430E0,3.160442829E0
1.383530847E2,1.326428294E0,9.668081284E0,2.446948767E0
1.384531519E2,8.379961848E-1,9.428654671E0,1.106154919E0
1.385532250E2,5.051919818E-1,1.044622135E1,1.410227895E0
1.386532833E2,1.292908430E0,8.746285439E0,8.427847624E-1
1.387533497E2,9.577099085E-1,9.421471596E0,1.352765322E0
1.388534186E2,9.026415944E-1,9.253871918E0,1.498816013E0
1.389534863E2,1.458113313E0,1.073592854E1,2.011190891E0
1.390535595E2,2.118933201E0,9.325700760E0,1.434170604E0
1.391536228E2,2.245829821E0,1.007989693E1,1.771763325E0
1.392536897E2,2.502017260E0,9.325700760E0,2.128510237E0
1.393537590E2,2.286532402E0,9.883566856E0,1.924996972E0
1.394538314E2,1.778946161E0,8.873182297E0,2.257801056E0
1.395538904E2,2.351177931E0,9.780612946E0,1.740637779E0
1.396539524E2,1.958516836E0,9.107821465E0,1.884294271E0
1.397540300E2,1.280937076E0,9.974549294E0,7.350423932E-1
1.398541117E2,1.130097747E0,1.014933109E1,3.687183261E-1
1.399541627E2,8.451790214E-1,8.959376335E0,6.560313106E-1
1.400542264E2,1.321639657E0,9.644139290E0,3.399870098E-1
1.401543049E2,1.211503029E0,8.712765694E0,1.675992310E-1
1.402543615E2,1.616135478E0,1.043185520E1,5.458946824E-1
1.403544328E2,2.020767927E0,9.885960579E0,1.980065227E0
1.404545036E2,2.253012657E0,9.668081284E0,1.644866824E0
1.405545604E2,1.994430900E0,9.347249031E0,1.503604531E0
1.406546230E2,2.020767927E0,1.011102295E1,1.606558442E0
1.407547025E2,1.817254543E0,9.007262230E0,1.426987767E0
1.408547651E2,1.932179809E0,9.352037430E0,2.719896078E0
1.409548410E2,1.786128998E0,9.294574738E0,1.453324795E0
1.410549034E2,1.149251938E0,9.749486923E0,1.673598051E0
1.411549633E2,6.943396926E-1,1.020439911E1,1.565855742E0
1.412550322E2,6.751855016E-1,9.399923325E0,1.664021015E0
1.413551007E2,1.211503029E0,1.003440571E1,1.446141958E0
1.414551673E2,6.991282701E-1,9.318517685E0,1.996825218E0
1.415552422E2,7.446194887E-1,9.526819229E0,1.843591571E0
1.416552986E2,1.501210332E0,9.040781975E0,2.482862949E0
1.417553652E2,1.860351562E0,1.052762604E1,1.494027495E0
1.418554402E2,2.267378330E0,9.569916725E0,2.298503876E0
1.419554994E2,2.363149166E0,8.822902679E0,7.781392932E-1
1.420555719E2,1.968093872E0,1.046058655E1,1.568249941E0
1.421556364E2,1.992036581E0,9.763853073E0,9.768640995E-1
1.422557130E2,1.845985889E0,8.880365372E0,1.877111435E0
1.423559291E2,1.929785490E0,1.004637718E1,1.886688590E0
1.424559960E2,1.561067224E0,9.783006668E0,1.450930476E0
1.425560633E2,1.515576005E0,9.234718323E0,2.090201855E0
1.426561256E2,4.884320498E-1,1.082451630E1,1.592192769E0
1.427561970E2,1.166011810E0,8.808537483E0,1.201925993E0
1.428562644E2,4.501236677E-1,1.035763264E1,1.491633177E0
1.429563318E2,1.010383964E0,9.124581337E0,1.620923996E0
1.430563988E2,1.252205729E0,9.423865318E0,1.604164124E0
1.431564686E2,2.130904675E0,9.584281921E0,2.411034822E0
1.432565412E2,2.102173328E0,1.025707340E1,2.104567528E0
1.433566063E2,1.383890867E0,9.299363136E0,1.668809533E0
1.434566679E2,2.178790092E0,9.981731415E0,2.133298874E0
1.435567345E2,1.573038578E0,7.764633179E0,1.338399649E0
1.436568014E2,2.212309837E0,9.802161217E0,1.721483588E0
1.437568690E2,2.674404860E0,9.991309166E0,2.638490915E0
1.438569379E2,2.097384691E0,8.777411461E0,3.244242430E0
1.439570035E2,2.324840784E0,9.921875000E0,2.111750364E0
1.440570692E2,1.484450340E0,9.744698524E0,2.882706881E0
1.441571366E2,4.213923812E-1,8.995290756E0,1.240234375E0
1.442572023E2,1.110943556E0,9.622590065E0,9.265843630E-1
1.443572732E2,1.589798450E0,9.615407944E0,-3.830839694E-2
1.444573488E2,1.187560320E0,1.029538155E1,1.276148438E0
1.445574063E2,2.056682110E0,9.237112045E0,2.303292274E0
1.446574732E2,1.637683988E0,9.318517685E0,2.020767927E0
1.447575403E2,2.679193497E0,1.010862827E1,1.812466025E0
1.448576066E2,1.563461423E0,9.826104164E0,1.453324795E0
1.449576775E2,2.681587696E0,9.569916725E0,1.661626697E0
1.450577454E2,1.472478986E0,9.007262230E0,2.430188894E0
1.451578086E2,2.339206457E0,9.818921089E0,1.788523316E0
1.452578795E2,3.021574736E0,8.265036583E0,2.102173328E0
1.453579424E2,1.570644259E0,9.929058075E0,1.977671027E0
1.454580099E2,1.664021015E0,9.251478195E0,2.415823221E0
1.455580763E2,1.587404251E0,9.531607628E0,1.769369125E0
1.456581401E2,5.674431324E-1,1.088437366E1,1.965699673E0
1.457582140E2,1.151646137E0,8.394327164E0,1.553884387E0
1.458582860E2,5.554717779E-1,9.273026466E0,1.048692346E0
1.459583493E2,1.690358043E0,1.005116558E1,8.308133483E-1
1.460584162E2,1.067846537E0,8.722343445E0,1.084606528E0
1.461584840E2,1.776551962E0,9.639349937E0,2.494834423E0
1.462585484E2,2.375120640E0,1.032411289E1,1.453324795E0
1.463586211E2,3.141288519E0,9.615407944E0,1.185166001E0
1.464586793E2,2.018373728E0,9.019232750E0,1.750214934E0
1.465587513E2,1.924996972E0,9.601041794E0,1.534730196E0
1.466588135E2,2.430188894E0,1.002961731E1,7.422251701E-1
1.467588873E2,1.783734679E0,9.222746849E0,9.409499764E-1
1.468589501E2,1.975276709E0,9.445414543E0,1.407833576E0
1.469590203E2,1.563461423E0,1.072635078E1,2.719896078E0
1.470590888E2,1.589798450E0,9.258660316E0,1.496421814E0
1.471591530E2,9.792584181E-1,1.008468533E1,1.771763325E0
1.472592218E2,6.488484740E-1,1.020200539E1,2.135693073E0
1.473592885E2,1.206714511E0,8.992896080E0,1.922602654E0
1.474593578E2,7.853221297E-1,1.034805584E1,1.759791970E0
1.475594195E2,1.295302629E0,9.038387299E0,1.800494671E0
1.476594809E2,2.142875910E0,9.644139290E0,2.281744003E0
1.477595558E2,1.194743156E0,9.502876282E0,1.386285067E0
1.478596282E2,2.899466753E0,1.036481571E1,1.438959122E0
1.479596924E2,2.370332003E0,9.613013268E0,9.074301720E-1
1.480597589E2,2.138087511E0,9.352037430E0,1.173194647E0
1.481598234E2,1.640078187E0,9.577098846E0,1.826831698E0
1.482598939E2,2.185972929E0,9.328094482E0,1.637683988E0
1.483599560E2,2.458920240E0,9.280209541E0,2.066259146E0
1.484600315E2,1.556278586E0,9.476539612E0,2.150058746E0
1.485600902E2,1.336005330E0,9.828497887E0,1.429382086E0
1.486601527E2,1.273754239E0,1.000327969E1,1.549095750E0
1.487602324E2,7.110996246E-1,9.766246796E0,1.477267504E0
1.488603024E2,5.219519138E-1,9.960183144E0,8.978530765E-1
1.489603703E2,1.798100352E0,9.567522049E0,5.171633363E-1
1.490604270E2,6.895511150E-1,9.153312683E0,1.163617611E0
1.491604992E2,2.047105074E0,9.845257759E0,1.058269501E0
1.492605669E2,1.549095750E0,9.478934288E0,1.939362645E0
1.493606272E2,2.090201855E0,9.744698524E0,2.068653345E0
1.494606987E2,2.640885115E0,1.019961071E1,1.539518714E0
1.495607678E2,1.388679385E0,9.057541847E0,1.587404251E0
1.496609993E2,2.513988495E0,9.431048393E0,1.051086664E0
1.497610721E2,1.824437380E0,1.015651417E1,1.498816013E0
1.498611430E2,2.592999697E0,8.734314919E0,1.589798450E0
1.499612070E2,1.623318315E0,1.001046276E1,2.449343204E0
1.500612744E2,1.726272106E0,9.749486923E0,2.367937803E0
1.501613485E2,1.438959122E0,9.220352173E0,1.948939681E0
1.502614089E2,1.163617611E0,9.828497887E0,1.216291547E0
1.503614693E2,4.597007632E-1,1.004398251E1,1.793311834E0
1.504615389E2,1.386285067E0,9.055147171E0,1.951334000E0
1.505616077E2,9.840469360E-1,9.536396980E0,7.781392932E-1
1.506616677E2,1.278542757E0,9.076695442E0,8.691217303E-1
1.507617473E2,1.757397652E0,1.008468533E1,2.513988495E0
1.508618063E2,1.343188167E0,9.684841156E0,2.355966330E0
1.509618720E2,2.027950764E0,9.584281921E0,1.601769805E0
1.510619399E2,2.248224020E0,9.919480324E0,1.094183564E0
1.511620094E2,1.834014535E0,9.208380699E0,1.295302629E0
1.512620830E2,1.527547359E0,9.438231468E0,7.781392932E-1
1.513621438E2,1.812466025E0,1.030495834E1,1.647261024E0
1.514622082E2,1.589798450E0,9.110215187E0,2.248224020E0
1.515622835E2,2.135693073E0,9.773429871E0,1.910631299E0
1.516623412E2,1.290514112E0,9.711178780E0,1.498816013E0
1.517624174E2,1.235445857E0,1.010144520E1,1.613741279E0
1.518624874E2,5.219519138E-1,9.828497887E0,1.273754239E0
1.519625489E2,8.236305118E-1,9.464568138E0,1.450930476E0
1.520626186E2,5.506832004E-1,9.900326729E0,4.836435020E-1
1.521626787E2,1.582615614E0,9.526819229E0,5.171633363E-1
1.522627482E2,1.889082789E0,1.002004051E1,1.786128998E0
1.523628123E2,1.637683988E0,9.739910126E0,2.004008055E0
1.524628884E2,1.822043180E0,9.632167816E0,2.645673752E0
1.525629476E2,2.406246185E0,9.356825829E0,2.487651587E0
1.526630087E2,2.322446585E0,9.486116409E0,1.434170604E0
1.527630822E2,1.436564922E0,9.117398262E0,1.582615614E0
1.528631606E2,2.437371731E0,9.428654671E0,7.470137477E-1
1.529632276E2,2.176395893E0,9.502876282E0,2.329629421E0
1.530632832E2,1.980065227E0,9.414288521E0,2.487651587E0
1.531633613E2,1.743032098E0,9.687235832E0,2.547508478E0
1.532634175E2,1.556278586E0,9.644139290E0,2.027950764E0
1.533634872E2,6.249057055E-1,9.579493523E0,2.274561077E-1
1.534635568E2,6.249057055E-1,1.043185520E1,1.245022893E0
1.535636186E2,1.271359921E0,9.742303848E0,8.906702399E-1
1.536636793E2,4.309694767E-1,9.569916725E0,2.073441982E0
1.537637547E2,1.343188167E0,9.663292885E0,2.411034822E0
1.538638252E2,1.668809533E0,9.838075638E0,2.142875910E0
1.539638948E2,1.520364523E0,9.512454033E0,1.664021015E0
1.540639528E2,2.253012657E0,1.013975334E1,1.992036581E0
1.541640251E2,1.936968327E0,1.015890789E1,2.461314440E0
1.542640940E2,1.127703428E0,9.007262230E0,1.393467903E0
1.543641609E2,2.475680113E0,9.443019867E0,1.690358043E0
1.544642268E2,1.898659945E0,1.061382008E1,2.004008055E0
1.545642934E2,1.189954638E0,8.631361008E0,2.145270348E0
1.546643554E2,1.893871427E0,1.029538155E1,1.687963724E0
1.547644207E2,8.739103079E-1,1.027383327E1,1.410227895E0
1.548644900E2,6.680026650E-1,9.519637108E0,1.929785490E0
1.549645581E2,8.403904438E-1,9.220352173E0,1.635289669E0
1.550646310E2,1.053480864E0,1.047495270E1,1.108549237E0
1.551646976E2,9.864411950E-1,9.486116409E0,1.247417212E0
1.552647596E2,1.357553840E0,1.005834866E1,1.558672905E0
1.553648345E2,1.379102230E0,9.031204224E0,2.377514839E0
1.554648975E2,2.027950764E0,1.078141975E1,1.807677507E0
1.555649582E2,2.094990492E0,9.529213905E0,1.905842781E0
1.556650218E2,1.477267504E0,8.971347809E0,2.238646984E0
1.557650917E2,1.932179809E0,9.514847755E0,1.225868702E0
1.558651660E2,2.032739401E0,9.311334610E0,8.954587579E-1
1.559652444E2,1.575432777E0,9.246688843E0,2.013585091E0
1.560653019E2,1.683175206E0,1.033847904E1,1.951334000E0
1.561653712E2,1.407833576E0,1.011581135E1,1.826831698E0
1.562654315E2,9.840469360E-1,9.727938652E0,1.462901950E0
1.563655145E2,7.829278708E-1,9.306546211E0,1.936968327E0
1.564655732E2,8.667274714E-1,1.026904488E1,6.967339516E-1
1.565656445E2,5.171633363E-1,9.313729286E0,6.751855016E-1
1.566656938E2,9.409499764E-1,9.538790703E0,9.960182905E-1
1.567657630E2,1.328822494E0,1.038157558E1,2.490045786E0
1.568658721E2,1.972882390E0,9.541185379E0,1.589798450E0
1.569659446E2,1.465296149E0,9.763853073E0,1.364736676E0
1.570660026E2,2.224281311E0,9.526819229E0,4.668835998E-1
1.571660746E2,1.810071707E0,9.423865318E0,1.144463301E0
1.572661412E2,1.922602654E0,9.210775375E0,3.663240373E-1
1.573662050E2,1.738243461E0,9.955394745E0,1.292908430E0
1.574662775E2,1.391073704E0,9.359220505E0,1.769369125E0
1.575663395E2,1.249811411E0,1.018045616E1,1.398256540E0
1.576664002E2,1.585009933E0,1.034087276E1,1.307274103E0
1.577664732E2,9.241901040E-1,9.304151535E0,2.073441982E0
1.578665406E2,3.136500120E-1,9.138946533E0,1.031932473E0
1.579666095E2,5.578660369E-1,9.988914490E0,-2.322446555E-1
1.580666747E2,7.446194887E-1,8.727131844E0,8.667274714E-1
1.581667492E2,1.204320192E0,1.099211597E1,1.604164124E0
1.582668089E2,1.934574008E0,8.688823700E0,1.692752242E0
1.583668812E2,1.958516836E0,1.049171257E1,1.374313712E0
1.584669504E2,2.324840784E0,9.217958450E0,1.836408734E0
1.585670114E2,1.594586968E0,8.940221786E0,1.494027495E0
1.586670803E2,2.351177931E0,9.500482559E0,6.177229285E-1
1.587671441E2,1.807677507E0,9.981731415E0,1.625712633E0
1.588672153E2,1.905842781E0,9.292180061E0,1.613741279E0
1.589672796E2,1.534730196E0,9.636956215E0,1.960911036E0
1.590673505E2,1.113337755E0,1.069522572E1,3.447755814E0
1.591674129E2,9.912297726E-1,8.533195496E0,1.640078187E0
1.592674825E2,-5.411061049E-1,9.234718323E0,1.252205729E0
1.593675509E2,1.182771802E0,1.159786701E1,-1.364736706E-1
1.594676185E2,6.823683381E-1,9.170072556E0,1.743032098E0
1.595676811E2,9.170072675E-1,8.921068192E0,2.379909277E0
1.596677419E2,1.340793848E0,1.071437931E1,1.678386688E0
1.597678166E2,1.905842781E0,9.332882881E0,8.044763207E-1
1.598678848E2,1.936968327E0,9.723150253E0,1.913025618E0
1.599679508E2,1.989642382E0,9.244295120E0,7.996878028E-1
1.600680191E2,2.047105074E0,1.026425648E1,1.252205729E0
1.601680944E2,1.565855742E0,8.423058510E0,5.482889414E-1
1.602681539E2,2.236252785E0,1.054678059E1,3.878725171E-1
1.603682215E2,1.292908430E0,9.969759941E0,9.146129489E-1
1.604682869E2,1.189954638E0,1.003680038E1,9.960182905E-1
1.605683554E2,8.667274714E-1,9.663292885E0,8.619389534E-1
1.606684196E2,-9.577099234E-2,1.090831566E1,5.602602959E-1
1.607684860E2,1.403045058E0,9.136552811E0,2.442160249E-1
1.608685563E2,5.818088055E-1,9.347249031E0,-5.267404765E-2
1.609686218E2,8.858816624E-1,1.005834866E1,8.092648983E-1
1.610686892E2,1.716695070E0,9.943423271E0,1.893871427E0
1.611687627E2,1.824437380E0,9.328094482E0,1.723877907E0
1.612688222E2,2.444554567E0,9.936240196E0,1.096577883E0
1.613688949E2,2.267378330E0,9.943423271E0,1.757397652E0
1.614689576E2,1.410227895E0,8.451789856E0,1.632895470E0
1.615690264E2,1.881899953E0,1.003919411E1,4.716721475E-1
1.616690889E2,2.267378330E0,9.196409225E0,1.771763325E0
1.617691563E2,2.030344963E0,9.093455315E0,2.346389294E0
1.618692249E2,1.003201127E0,1.059706020E1,2.102173328E0
1.619692982E2,1.089395046E0,1.016369629E1,1.889082789E0
1.620693634E2,4.142095447E-1,9.498087883E0,1.764580488E0
1.621694319E2,1.412622094E0,1.018045616E1,2.312869549E0
1.622695080E2,7.230709791E-1,9.213169098E0,1.261782765E0
1.623695696E2,7.637736797E-1,9.524425507E0,1.228263021E0
1.624696304E2,1.702329397E0,9.601041794E0,1.731060743E0
1.625697007E2,1.697540879E0,1.051326084E1,2.219492674E0
1.626697633E2,1.642472506E0,9.366402626E0,1.149251938E0
1.627698344E2,1.826831698E0,1.010383987E1,1.379102230E0
1.628698998E2,1.470084786E0,8.858817101E0,5.530774593E-1
1.629699628E2,2.521171331E0,9.435836792E0,6.943396926E-1
1.630700319E2,2.291321039E0,9.083878517E0,1.577827096E0
1.631700973E2,1.999219418E0,9.806949615E0,1.608952641E0
1.632701680E2,1.371919513E0,9.246688843E0,1.450930476E0
1.633702319E2,1.458113313E0,9.988914490E0,1.944151163E0
1.634703064E2,4.142095447E-1,9.474145889E0,1.314456820E0
1.635703701E2,9.170072675E-1,9.404711723E0,1.388679385E0
1.636704322E2,1.592192769E0,1.044622135E1,8.188419938E-1
1.637705050E2,7.589851022E-1,9.950606346E0,1.340793848E0
1.638705801E2,1.336005330E0,8.791776657E0,1.917814136E0
1.639706344E2,1.568249941E0,1.025467873E1,1.209108829E0
1.640707166E2,1.994430900E0,9.464568138E0,1.189954638E0
1.641708915E2,2.633702278E0,1.010862827E1,1.328822494E0
1.642709615E2,2.202732801E0,8.834874153E0,2.966506481E0
1.643710238E2,2.363149166E0,9.692024231E0,1.431776285E0
1.644710911E2,2.018373728E0,9.273026466E0,1.692752242E0
1.645711623E2,2.513988495E0,9.407105446E0,1.400650740E0
1.646712192E2,1.498816013E0,9.471751213E0,1.218685865E0
1.647712912E2,1.546701550E0,9.735121727E0,1.395862222E0
1.648713593E2,6.536370516E-1,1.024031353E1,3.974496126E-1
1.649714266E2,4.597007632E-1,9.079090118E0,7.996878028E-1
1.650714935E2,1.007989645E0,1.064255142E1,-4.333637357E-1
1.651715642E2,1.106154919E0,9.227535248E0,5.961744189E-1
1.652716278E2,1.393467903E0,9.701601982E0,1.470084786E0
1.653716969E2,1.956122518E0,1.049171257E1,1.410227895E0
1.654717674E2,1.699935079E0,8.968953133E0,1.187560320E0
1.655718293E2,2.264983892E0,9.383162498E0,9.194015265E-1
1.656718899E2,2.712713242E0,9.945817947E0,7.326480746E-1
1.657719718E2,1.673598051E0,9.620196342E0,1.989642382E0
1.658720360E2,2.463708878E0,9.577098846E0,2.066259146E0
1.659721001E2,1.936968327E0,9.373585701E0,1.735849261E0
1.660721685E2,1.683175206E0,9.636956215E0,2.300898075E0
1.661722388E2,1.434170604E0,9.584281921E0,1.960911036E0
1.662723001E2,1.115732074E0,1.040791225E1,1.786128998E0
1.663723739E2,5.171633363E-1,9.428654671E0,1.276148438E0
1.664724395E2,9.792584181E-1,9.897932053E0,4.573064744E-1
1.665725067E2,9.840469360E-1,9.873989105E0,1.280937076E0
1.666725634E2,8.260248303E-1,9.526819229E0,2.288926601E0
1.667726331E2,1.410227895E0,9.850046158E0,2.504411459E0
1.668727069E2,2.018373728E0,9.352037430E0,1.419804931E0
1.669727687E2,2.315263748E0,9.862017632E0,4.525179267E-1
1.670728366E2,1.819648862E0,9.778218269E0,5.482889414E-1
1.671729062E2,2.066259146E0,9.438231468E0,8.954587579E-1
1.672729711E2,1.585009933E0,9.514847755E0,5.746259689E-1
1.673730375E2,2.111750364E0,9.931451797E0,1.297696948E0
1.674731062E2,2.202732801E0,9.658504486E0,1.807677507E0
1.675731722E2,1.252205729E0,9.814132690E0,1.256994247E0
1.676732337E2,8.834874034E-1,9.452596664E0,1.290514112E0
1.677733118E2,1.108549237E0,9.660899162E0,7.158881426E-1
1.678733780E2,4.237866402E-1,9.177255630E0,1.012778282E0
1.679734418E2,1.333611012E0,9.907508850E0,-6.727912426E-1
1.680735105E2,7.925049663E-1,9.569916725E0,1.762186289E0
1.681735791E2,1.697540879E0,9.747093201E0,2.133298874E0
1.682736428E2,1.757397652E0,1.008708000E1,2.449343204E0
1.683737120E2,2.063864946E0,9.534002304E0,1.235445857E0
1.684737804E2,2.310475111E0,9.038387299E0,1.130097747E0
1.685738505E2,2.190761566E0,9.828497887E0,1.309668303E0
1.686739058E2,1.625712633E0,9.220352173E0,7.398309112E-1
1.687739893E2,2.250618219E0,9.768641472E0,1.898659945E0
1.688740524E2,2.121327400E0,9.680052757E0,2.901860952E0
1.689741228E2,2.109356165E0,9.191620827E0,2.451737404E0
1.690741818E2,1.292908430E0,9.495694160E0,2.537931204E0
1.691742502E2,4.429408312E-1,9.713572502E0,1.297696948E0
1.692743126E2,1.288119793E0,1.006074238E1,9.265843630E-1
1.693743906E2,9.170072675E-1,9.610619545E0,1.197137404E-2
1.694744528E2,8.595446348E-1,9.684841156E0,8.786988258E-1
1.695745169E2,1.520364523E0,9.797372818E0,1.458113313E0
1.696745743E2,1.982459545E0,9.974549294E0,1.060663700E0
1.697746583E2,1.632895470E0,9.680052757E0,2.909043789E0
1.698747261E2,1.752609134E0,9.378374100E0,1.675992310E-1
1.699747964E2,2.346389294E0,8.437424660E0,-1.197137386E-1
1.700748614E2,1.951334000E0,1.126985168E1,-1.817254543E0
1.701749172E2,1.484450340E0,8.875576973E0,5.530774593E-1
1.702749896E2,2.262589693E0,9.708784103E0,2.150058746E0
1.703750522E2,1.592192769E0,8.748680115E0,1.795706153E-1
1.704751231E2,1.843591571E0,1.723638344E1,-9.313728809E-1
1.705751841E2,1.656838179E0,5.063891411E0,2.638490915E0
1.706752462E2,9.792584181E-1,8.197997093E0,4.860377908E-1
1.707753185E2,3.519583941E-1,8.427846909E0,9.553156495E-1
1.708753971E2,1.934574008E0,8.968953133E0,2.274561077E-1
1.709754563E2,1.383890867E0,1.049410629E1,1.546701550E0
1.710755300E2,2.188367128E0,9.876383781E0,1.908236980E0
1.711755959E2,1.161223292E0,1.026665020E1,1.197137404E-2
1.712756770E2,1.649655342E0,8.533195496E0,1.163617611E0
1.713758579E2,2.327235222E0,8.051946640E0,1.043903828E0
1.714759323E2,3.718308687E0,1.070001411E1,-1.127703428E0
1.715759917E2,2.609759569E-1,9.273026466E0,1.019961119E0
1.716760513E2,2.988054991E0,9.761458397E0,2.588211060E0
1.717761342E2,1.379102230E0,1.075029373E1,2.609759569E-1
1.718761977E2,8.954587579E-1,9.103033066E0,1.515576005E0
1.719762597E2,7.350423932E-1,1.067128277E1,1.319245458E0
1.720763361E2,-9.577099234E-3,9.991309166E0,6.296942830E-1
1.721763961E2,1.505998850E0,8.643332481E0,3.543526828E-1
1.722764623E2,7.230709791E-1,1.093225861E1,1.537124395E0
1.723765341E2,1.173194647E0,9.217958450E0,1.280937076E0
1.724765958E2,2.147664547E0,1.002004051E1,1.956122518E0
1.725766723E2,2.351177931E0,9.759063721E0,9.385557175E-1
1.726767244E2,2.291321039E0,9.129369736E0,1.120520592E0
1.727767995E2,2.408640385E0,9.708784103E0,1.845985889E0
1.728768759E2,1.692752242E0,8.935433388E0,1.391073704E0
1.729769311E2,2.181184292E0,9.670475960E0,2.327235222E0
1.730769992E2,1.604164124E0,1.012059975E1,2.006402254E0
1.731770657E2,1.321639657E0,9.196409225E0,1.628106833E0
1.732771321E2,1.065452337E0,9.701601982E0,1.798100352E0
1.733772059E2,9.648927450E-1,9.670475960E0,9.194015265E-1
1.734772695E2,8.451790214E-1,9.186832428E0,9.122186899E-1
1.735773358E2,7.063110471E-1,9.921875000E0,1.623318315E0
1.736773930E2,1.266571403E0,9.979337692E0,2.071047783E0
1.737774732E2,1.953728199E0,9.584281921E0,1.419804931E0
1.738775468E2,2.502017260E0,1.034805584E1,7.853221297E-1
1.739776070E2,2.001613855E0,8.549955368E0,5.004034638E-1
1.740776707E2,1.879505754E0,1.012778282E1,1.120520592E0
1.741777361E2,1.642472506E0,9.182044029E0,6.129343510E-1
1.742778062E2,1.970488191E0,9.615407944E0,1.216291547E0
1.743778728E2,1.652049661E0,1.031453609E1,1.644866824E0
1.744779434E2,1.201925993E0,9.723150253E0,1.204320192E0
1.745780050E2,6.344828010E-1,9.866806030E0,1.410227895E0
1.746780663E2,9.672870040E-1,9.694418907E0,9.146129489E-1
1.747781429E2,1.225868702E0,9.756669998E0,9.912297726E-1
1.748782066E2,1.084606528E0,9.141341209E0,2.238646984E0
1.749782771E2,1.331216812E0,9.953000069E0,1.534730196E0
1.750783472E2,2.047105074E0,9.677659035E0,1.905842781E0
1.751784091E2,1.924996972E0,9.945817947E0,1.108549237E0
1.752784790E2,2.614548206E0,9.205986977E0,1.498816013E0
1.753785453E2,1.628106833E0,8.942616463E0,1.786128998E0
1.754786107E2,2.296109438E0,9.773429871E0,8.140534163E-1
1.755786807E2,1.683175206E0,9.617801666E0,1.479661822E0
1.756787441E2,1.984853864E0,1.024031353E1,2.365543604E0
1.757788140E2,1.312062621E0,9.792584419E0,1.060663700E0
1.758788884E2,6.536370516E-1,9.268238068E0,8.140534163E-1
1.759789439E2,1.747820675E-1,1.031214142E1,5.530774593E-1
1.760790160E2,1.326428294E0,9.160495758E0,4.549122155E-1
1.761790860E2,9.337671995E-1,9.998491287E0,1.383890867E0
1.762791533E2,1.498816013E0,9.438231468E0,2.047105074E0
1.763792254E2,1.970488191E0,1.003201103E1,1.084606528E0
1.764792853E2,2.334417820E0,9.771035194E0,1.393467903E0
1.765793483E2,1.891477108E0,9.043175697E0,1.010383964E0
1.766794121E2,1.984853864E0,9.371191978E0,1.702329397E0
1.767794881E2,1.537124395E0,9.452596664E0,6.488484740E-1
1.768795476E2,2.832427025E0,9.773429871E0,1.556278586E0
1.769796224E2,1.503604531E0,9.620196342E0,2.018373728E0
1.770796845E2,8.475732803E-1,1.015890789E1,8.451790214E-1
1.771797513E2,1.017566800E0,9.938634872E0,1.230657220E0
1.772798186E2,5.937801600E-1,9.751881599E0,1.867534369E-1
1.773798890E2,7.134938836E-1,9.194015503E0,1.295302629E0
1.774799675E2,1.465296149E0,9.380768776E0,1.070240855E0
1.775800270E2,1.453324795E0,9.622590065E0,2.032739401E0
1.776800832E2,1.992036581E0,9.498087883E0,1.336005330E0
1.777801628E2,1.726272106E0,1.050368404E1,7.685621977E-1
1.778802266E2,1.944151163E0,8.784594536E0,1.714300752E0
1.779802886E2,2.102173328E0,9.663292885E0,1.297696948E0
1.780803645E2,2.152452946E0,8.753468513E0,5.865973234E-1
1.781804219E2,1.419804931E0,8.253065109E0,2.341600657E0
1.782804890E2,2.990449190E0,1.418847275E1,3.617749214E0
1.783805630E2,1.470084786E0,5.104593754E0,2.916226625E0
1.784806250E2,9.457385540E-1,1.142308521E1,3.294522047E0
1.785807017E2,1.371919513E0,9.026415825E0,1.960911036E0
1.786826018E2,6.632141471E-1,8.537983894E0,1.197137356E0
1.787826759E2,1.618529797E0,9.754275322E0,1.314456820E0
1.788827458E2,1.405439258E0,1.038636398E1,1.347976685E0
1.789828148E2,2.626519442E0,9.404711723E0,2.004008055E0
1.790828891E2,1.702329397E0,9.768641472E0,5.698373914E-1
1.791829526E2,2.384697676E0,1.008229160E1,4.118152559E-1
1.792830127E2,1.903448462E0,9.354432106E0,7.661679387E-1
1.793830862E2,1.910631299E0,9.936240196E0,1.297696948E0
1.794831482E2,2.236252785E0,9.191620827E0,1.419804931E0
1.795832194E2,1.529941559E0,9.924268723E0,2.296109438E0
1.796832730E2,2.102173328E0,1.030974770E1,1.393467903E0
1.797833502E2,1.106154919E0,9.598648071E0,1.731060743E0
1.798834172E2,6.225114316E-2,9.577098846E0,1.077423692E0
1.799834818E2,1.187560320E0,9.610619545E0,3.735068738E-1
1.800835501E2,1.230657220E0,1.002004051E1,1.007989645E0
1.801836195E2,1.242628574E0,9.129369736E0,1.989642382E0
1.802836901E2,2.066259146E0,1.028580475E1,1.671203852E0
1.803837509E2,1.831620216E0,9.419076920E0,1.695146561E0
1.804838188E2,2.147664547E0,9.426259995E0,1.446141958E0
1.805838912E2,2.698347807E0,9.294574738E0,1.675992370E0
1.806839481E2,1.685569525E0,9.100638390E0,4.908263385E-1
1.807840242E2,2.401457548E0,9.584281921E0,2.142875910E0
1.808840879E2,1.848380208E0,9.507665634E0,2.341600657E0
1.809841537E2,1.640078187E0,1.003680038E1,1.853168726E0
1.810842201E2,8.236305118E-1,9.821314812E0,1.075029373E0
1.811842908E2,5.387118459E-1,9.167677879E0,3.088614643E-1
1.812843638E2,4.525179267E-1,1.043424988E1,5.794144869E-1
1.813844270E2,1.714300752E0,9.569916725E0,5.458946824E-1
1.814844956E2,1.652049571E-1,9.636956215E0,1.628106833E0
1.815845574E2,1.834014535E0,9.385557175E0,2.276955366E0
1.816846168E2,2.418217659E0,1.100408745E1,7.302538157E-1
1.817846958E2,2.360754967E0,8.798959732E0,1.766974807E0
1.818847688E2,2.015979290E0,8.945011139E0,1.666415215E0
1.819848252E2,1.738243461E0,9.773429871E0,1.058269501E0
1.820848962E2,2.013585091E0,9.634561539E0,1.903448462E0
1.821849691E2,2.080624819E0,9.452596664E0,2.389486313E0
1.822850347E2,1.529941559E0,1.028819847E1,1.845985889E0
1.823850948E2,7.948992252E-1,9.404711723E0,1.845985889E0
1.824851621E2,6.416656375E-1,9.452596664E0,1.561067224E0
1.825852413E2,1.034326673E0,9.493299484E0,4.285751879E-1
1.826852861E2,1.268965602E-1,9.170072556E0,7.541965842E-1
1.827853639E2,1.247417212E0,9.196409225E0,1.620923996E0
1.828854311E2,1.975276709E0,1.150449085E1,1.807677507E0
1.829854998E2,1.671203852E0,6.620169640E0,1.877111435E0
1.830855636E2,2.636096478E0,1.192588329E1,9.481328130E-1
1.831856306E2,2.509200096E0,8.420664787E0,1.324033976E0
1.832856986E2,1.666415215E0,9.148524284E0,1.369525194E0
1.833857707E2,2.274561167E0,1.016130257E1,1.410227895E0
1.834858350E2,1.790917516E0,9.337671280E0,1.759791970E0
1.835859033E2,1.144463301E0,1.000088596E1,1.783734679E0
1.836859593E2,1.419804931E0,9.584281921E0,1.201925993E0
1.837860374E2,2.633702382E-2,9.347249031E0,4.812492430E-1
1.838861081E2,6.680026650E-1,1.012538815E1,4.094209969E-1
1.839861738E2,1.082212210E0,9.387951851E0,1.053480864E0
1.840862519E2,6.057515144E-1,9.663292885E0,2.020767927E0
1.841863015E2,1.460507631E0,9.593858719E0,2.248224020E0
1.842863777E2,2.197944164E0,1.037918091E1,1.460507631E0
1.843864362E2,2.193155766E0,8.269824982E0,5.506832004E-1
1.844865197E2,2.195549965E0,9.888355255E0,6.440598965E-1
1.845865763E2,1.975276709E0,9.366402626E0,3.974496126E-1
1.846866284E2,1.743032098E0,9.639349937E0,1.917814136E0
1.847867138E2,1.731060743E0,9.692024231E0,2.150058746E0
1.848867866E2,1.680780888E0,1.019721603E1,1.539518714E0
1.849868379E2,7.733507752E-1,1.011581135E1,1.108549237E0
1.850869057E2,1.005595446E0,9.280209541E0,1.029538155E0
1.851869761E2,6.153286099E-1,1.011581135E1,1.290514112E0
1.852870399E2,4.357580245E-1,8.885153770E0,1.647261024E0
1.853871136E2,1.182771802E0,9.996097565E0,2.083019018E0
1.854871800E2,1.704723716E0,9.538790703E0,2.909043789E0
1.855872408E2,1.683175206E0,9.244295120E0,1.889082789E0
1.856872997E2,2.248224020E0,1.025946712E1,1.532335877E0
1.857873733E2,1.987248063E0,8.449396133E0,1.517970204E0
1.858893445E2,1.699935079E0,9.809344292E0,6.153286099E-1
1.859894079E2,1.946545362E0,9.117398262E0,1.012778282E0
1.860894741E2,1.750214934E0,1.001525116E1,1.304879785E0
1.861895419E2,1.386285067E0,9.957788467E0,1.448536277E0
1.862896086E2,1.180377483E0,1.003440571E1,1.197137356E0
1.863896820E2,4.692778587E-1,9.433443069E0,1.192348838E0
1.864897428E2,9.888355136E-1,9.428654671E0,3.304099143E-1
1.865898151E2,9.361614585E-1,9.653716087E0,6.703969836E-2
1.866898720E2,9.074301720E-1,9.409500122E0,1.314456820E0
1.867899415E2,1.819648862E0,1.068325424E1,1.336005330E0
1.868900136E2,1.606558442E0,9.232323647E0,1.575432777E0
1.869900784E2,1.901054144E0,9.141341209E0,1.604164124E0
1.870901461E2,2.743839025E0,9.093455315E0,1.391073704E0
1.871902170E2,1.927391171E0,9.593858719E0,9.385557175E-1
1.872902790E2,1.831620216E0,1.013257122E1,1.309668303E0
1.873903524E2,1.927391171E0,9.179649353E0,2.231464148E0
1.874904137E2,1.565855742E0,9.545973778E0,1.927391171E0
1.875904877E2,7.589851022E-1,1.001046276E1,1.853168726E0
1.876905470E2,5.363175869E-1,9.687235832E0,1.424593568E0
1.877906215E2,7.063110471E-1,1.011581135E1,1.268965602E0
1.878906887E2,1.319245458E0,9.138946533E0,1.486844659E0
1.879907500E2,1.338399649E0,9.890748978E0,2.157241583E0
1.880908170E2,1.146857619E0,9.723150253E0,2.384697676E0
1.881908941E2,2.104567528E0,9.962577820E0,1.972882390E0
1.882909496E2,2.375120640E0,9.615407944E0,4.525179267E-1
1.883910229E2,1.877111435E0,8.288979530E0,1.668809533E0
1.884910911E2,2.470891714E0,9.857229233E0,9.505270720E-1
1.885911563E2,1.659232497E0,9.823709488E0,1.903448462E0
1.886912168E2,1.913025618E0,9.802161217E0,1.908236980E0
1.887912845E2,1.362342358E0,9.914691925E0,1.733454943E0
1.888913627E2,6.775797606E-1,1.028101635E1,1.158828974E0
1.889914193E2,6.440598965E-1,1.001525116E1,3.519583941E-1
1.890914871E2,1.307274103E0,9.323306084E0,5.865973234E-1
1.891915553E2,7.015225291E-1,9.759063721E0,1.077423692E0
1.892916341E2,1.213897347E0,9.040781975E0,1.185166001E0
1.893916887E2,2.537931204E0,1.068085957E1,2.363149166E0
1.894917593E2,2.145270348E0,1.085324764E1,8.451790214E-1
1.895918215E2,1.283331275E0,6.680026531E0,1.944151163E0
1.896918821E2,3.423812866E0,1.094662476E1,4.525179267E-1
1.897919600E2,1.048692346E0,8.794171333E0,6.632141471E-1
1.898920264E2,2.238646984E0,1.019003391E1,2.411034822E0
1.899920920E2,2.063864946E0,9.194015503E0,1.175588965E0
1.900921599E2,1.367130876E0,8.427846909E0,2.379909277E0
1.901922257E2,1.505998850E0,1.371680069E1,1.245022893E0
1.902923129E2,2.897072434E-1,6.280182838E0,-4.549122229E-2
1.903923713E2,2.944957912E-1,6.653689861E0,-1.819648892E-1
1.904924371E2,9.361614585E-1,1.482774353E1,-3.792531252E0
1.905925023E2,2.497228622E0,7.778998852E0,2.600182533E0
1.906925560E2,7.757450342E-1,9.957788467E0,2.885101080E0
1.907926359E2,2.803695917E0,1.064255142E1,6.296942830E-1
1.908927031E2,1.395862222E0,9.404711723E0,1.656838179E0
1.909927622E2,1.084606528E0,8.518829346E0,1.168406129E0
1.910928345E2,2.315263748E0,9.921875000E0,-8.619388938E-2
1.911929083E2,1.225868702E0,7.173247337E0,1.098972082E0
1.912929646E2,2.142875910E0,1.174631214E1,1.450930476E0
1.913930328E2,1.161223292E0,9.644139290E0,4.501236677E-1
1.914931066E2,-2.202732861E-1,9.277814865E0,1.644866824E0
1.915931703E2,5.075862408E-1,1.147575951E1,1.546701550E0
1.916932287E2,1.175588965E0,7.458166122E0,2.346389294E0
1.917932982E2,1.312062621E0,1.042467213E1,1.383890867E0
1.918933738E2,1.307274103E0,9.969759941E0,7.422251999E-2
1.919934396E2,1.106154919E0,7.058321953E0,2.858764172E0
1.920935129E2,2.387091875E0,1.344385338E1,-1.436564885E-2
1.921935666E2,1.527547359E0,8.516435623E0,6.703969836E-2
1.922936422E2,1.800494671E0,1.191391182E1,3.141288519E0
1.923937007E2,1.199531674E0,1.086761379E1,4.233078003E0
1.924937761E2,2.109356165E0,5.672037125E0,2.786935806E0
1.925938377E2,1.687963724E0,1.027143860E1,-7.302538157E-1
1.926938977E2,1.695146561E0,1.539279270E1,-1.005595401E-1
1.927939717E2,2.229069948E0,6.380742550E0,6.787769318E0
1.928940383E2,1.465296149E0,9.165284157E0,6.229903221E0
1.929941063E2,-5.650488734E-1,2.035133541E-1,4.644893110E-1
1.930941773E2,3.138894320E0,1.528744507E1,-1.089395046E0
1.931946438E2,1.561067224E0,7.879558563E0,3.399870157E0
1.932947101E2,2.104567528E0,1.352046967E1,3.325647593E0
1.933947820E2,1.707117915E0,7.031985283E0,1.532335877E0
1.934948433E2,1.984853864E0,8.387145042E0,1.003201127E0
1.935949172E2,2.703136206E0,1.075987053E1,9.912297726E-1
1.936949695E2,1.115732074E0,8.377567291E0,2.686376333E0
1.937950440E2,2.063864946E0,9.897932053E0,2.698347807E0
1.938951144E2,1.486844659E0,8.875576973E0,1.132491946E0
1.939951790E2,1.132491946E0,1.130576611E1,2.727078915E0
1.940952451E2,-2.561874092E-1,8.310527802E0,1.891477108E0
1.941953211E2,7.182824612E-1,1.056593513E1,2.099778891E0
1.942953788E2,1.723877907E0,8.480521202E0,1.652049661E0
1.943954475E2,9.170072675E-1,1.077184200E1,2.396669149E0
1.944955151E2,1.127703428E0,8.482915878E0,2.008796453E0
1.945955798E2,1.781340480E0,1.058269501E1,2.363149166E0
1.946956381E2,1.915419817E0,9.143735886E0,1.077423692E0
1.947957188E2,2.097384691E0,9.258660316E0,1.424593568E0
1.948957818E2,2.061470509E0,1.036721039E1,1.189954638E0
1.949958483E2,1.529941559E0,8.645726204E0,2.296109438E0
1.950959168E2,1.996825218E0,1.016369629E1,1.896265626E0
1.951959893E2,1.309668303E0,9.771035194E0,2.159635782E0
1.952960521E2,1.027143836E0,9.478934288E0,2.200338602E0
1.953961181E2,1.192348838E0,9.823709488E0,1.946545362E0
1.954961899E2,8.834874034E-1,9.395133972E0,1.355159521E0
1.955962533E2,1.134886265E0,9.347249031E0,1.510787368E0
1.956963172E2,3.687183261E-1,1.039833546E1,1.417410731E0
1.957963852E2,1.721483588E0,9.907508850E0,2.140481710E0
1.958964523E2,1.944151163E0,9.421471596E0,1.094183564E0
1.959965223E2,2.111750364E0,8.775016785E0,1.462901950E0
1.960965964E2,2.434977531E0,1.184926605E1,7.422251701E-1
1.961966625E2,1.494027495E0,7.479714394E0,2.200338602E0
1.962967220E2,1.723877907E0,6.919454098E0,3.229876757E0
1.963967896E2,2.906649590E0,1.378623390E1,-2.633702382E-2
1.964968584E2,6.919454336E-1,8.174054146E0,2.320052385E0
1.965969343E2,2.083019018E0,9.715967178E0,3.411841631E0
1.966969804E2,9.002473354E-1,1.013735962E1,1.309668303E0
1.967970597E2,9.816526622E-2,8.583475113E0,2.636096478E0
1.968971239E2,1.319245458E0,1.063776302E1,1.601769805E0
1.969971965E2,9.361614585E-1,8.875576973E0,8.236305118E-1
1.970972588E2,8.882759809E-1,9.318517685E0,1.692752242E0
1.971973274E2,2.020767927E0,1.086521912E1,1.939362645E0
1.972973968E2,1.886688590E0,8.854028702E0,2.312869549E0
1.973974594E2,2.293715239E0,1.168406105E1,1.534730196E0
1.974975369E2,1.510787368E0,6.526793003E0,2.159635782E0
1.975976060E2,2.087807655E0,1.058508873E1,2.652856588E0
1.976976614E2,2.118933201E0,1.136801720E1,1.082212210E0
1.977977346E2,1.393467903E0,6.433416367E0,2.621730804E0
1.978978028E2,2.478074312E0,1.124351406E1,1.460507631E0
1.979978605E2,1.043903828E0,1.108788681E1,1.539518714E0
1.980979384E2,8.092648983E-1,8.176448822E0,3.593806505E0
1.981980086E2,8.810931444E-1,9.972154617E0,1.376708031E0
1.982980646E2,8.930644989E-1,8.643332481E0,9.170072675E-1
1.983981424E2,9.529213905E-1,9.945817947E0,2.667222023E0
1.984982036E2,1.766974807E0,1.038157558E1,2.312869549E0
1.985982684E2,1.642472506E0,8.423058510E0,2.008796453E0
1.986983261E2,1.379102230E0,9.680052757E0,2.379909277E0
1.987984147E2,2.394274712E0,1.031453609E1,1.546701550E0
1.988984661E2,2.063864946E0,8.825297356E0,1.843591571E0
1.989985349E2,1.410227895E0,9.567522049E0,2.355966330E0
1.990986062E2,2.449343204E0,9.534002304E0,1.561067224E0
1.991986690E2,2.375120640E0,9.890748978E0,1.441353440E0
1.992987363E2,1.800494671E0,9.196409225E0,1.649655342E0
1.993988019E2,1.046298146E0,9.806949615E0,2.037527800E0
1.994988800E2,1.046298146E0,9.804554939E0,1.374313712E0
1.995989527E2,7.685621977E-1,9.668081284E0,1.654443860E0
1.996990048E2,7.182824612E-1,1.063536835E1,9.936240315E-1
1.997990853E2,5.195576549E-1,8.676852226E0,1.843591571E0
1.998991440E2,5.075862408E-1,8.664880753E0,1.946545362E0
1.999992041E2,1.110943556E0,1.366652107E1,2.308080912E0
2.000992714E2,1.635289669E0,6.165257454E0,4.573064744E-1
2.001993477E2,2.389486313E0,1.128661156E1,7.134938836E-1
2.002994113E2,1.886688590E0,9.335277557E0,1.362342358E0
2.003994815E2,1.692752242E0,8.854028702E0,3.754222870E0
2.004996157E2,1.984853864E0,8.959376335E0,1.520364523E0
2.005996750E2,1.355159521E0,8.786988258E0,1.491633177E0
2.006997318E2,2.815667152E0,1.092986488E1,3.375927448E0
2.007998227E2,1.113337755E0,7.910684109E0,2.432583094E0
2.008998734E2,1.616135478E0,9.103033066E0,2.966506481E0
2.009999449E2,2.128510237E0,1.148773098E1,2.614548206E0
2.011000070E2,4.094209969E-1,7.273807049E0,2.327235222E0
2.012000768E2,1.345582485E0,1.076944828E1,1.996825218E0
2.013001470E2,1.041509509E0,8.901913643E0,1.417410731E0
2.014002085E2,1.213897347E0,1.017806244E1,2.411034822E0
2.015002789E2,1.719089270E0,9.900326729E0,2.138087511E0
2.016003422E2,1.216291547E0,9.136552811E0,2.324840784E0
2.017004070E2,2.133298874E0,1.014454269E1,2.042316437E0
2.018004829E2,2.468497276E0,8.693612099E0,1.668809533E0
2.019005476E2,2.487651587E0,9.794978142E0,2.123721838E0
2.020006115E2,1.652049661E0,8.763046265E0,2.250618219E0
2.021006813E2,2.042316437E0,9.852440834E0,2.025556564E0
2.022007476E2,2.794118643E0,8.506858826E0,1.759791970E0
2.023008190E2,1.517970204E0,1.046298122E1,2.490045786E0
2.024008808E2,1.831620216E0,9.826104164E0,1.625712633E0
2.025009471E2,1.110943556E0,9.203592300E0,1.963305354E0
2.026010184E2,1.939362586E-1,9.938634872E0,2.219492674E0
2.027010830E2,1.661626697E0,9.658504486E0,1.740637779E0
2.028011470E2,5.818088055E-1,9.167677879E0,1.383890867E0
2.029012223E2,8.906702399E-1,9.507665634E0,1.695146561E0
2.030012836E2,1.441353440E0,9.960183144E0,2.669616461E0
2.031013497E2,1.570644259E0,9.385557175E0,2.260195494E0
2.032014207E2,2.418217659E0,9.993702888E0,2.063864946E0
2.033014847E2,1.778946161E0,9.601041794E0,1.577827096E0
2.034015575E2,1.551490068E0,9.158101082E0,1.695146561E0
2.035016247E2,1.915419817E0,9.534002304E0,1.280937076E0
2.036016850E2,2.509200096E0,9.579493523E0,1.776551962E0
2.037017483E2,2.150058746E0,8.976136208E0,2.284138203E0
2.038018192E2,1.450930476E0,1.019003391E1,2.166818619E0
2.039018977E2,1.486844659E0,1.043664360E1,2.116539001E0
2.040019626E2,5.818088055E-1,8.990502357E0,1.800494671E0
2.041020263E2,4.094209969E-1,9.634561539E0,1.635289669E0
2.042020907E2,5.363175869E-1,1.064973450E1,1.376708031E0
2.043021548E2,5.554717779E-1,9.067118645E0,1.307274103E0
2.044022271E2,1.261782765E0,9.507665634E0,2.784541607E0
2.045022936E2,2.375120640E0,1.052523232E1,2.114144564E0
2.046023623E2,1.910631299E0,8.260248184E0,2.116539001E0
2.047024152E2,2.408640385E0,9.620196342E0,2.174001455E0
2.048025015E2,2.370332003E0,9.921875000E0,8.260248303E-1
2.049025623E2,8.978530765E-1,8.961771011E0,1.517970204E0
2.050026307E2,3.799714088E0,1.048213482E1,1.953728199E0
2.051026933E2,2.078230619E0,8.454184532E0,1.668809533E0
2.052027637E2,1.726272106E0,9.572310448E0,2.396669149E0
2.053028259E2,1.424593568E0,1.013017654E1,1.130097747E0
2.054028990E2,1.149251938E0,9.387951851E0,1.395862222E0
2.055029665E2,7.254652381E-1,1.023791885E1,8.356019258E-1
2.056030281E2,1.177983165E0,9.902720451E0,1.084606528E0
2.057030866E2,1.426987767E0,9.134158134E0,1.285725594E0
2.058031639E2,7.422251701E-1,1.066170597E1,1.735849261E0
2.059032363E2,1.647261024E0,8.664880753E0,2.590605259E0
2.060032985E2,1.723877907E0,9.869200706E0,2.245829821E0
2.061033672E2,2.061470509E0,1.023552513E1,1.814860344E0
2.062034368E2,2.791724443E0,9.431048393E0,5.435003638E-1
2.063034974E2,2.121327400E0,9.059935570E0,2.015979290E0
2.064035709E2,2.324840784E0,1.097056675E1,2.628913641E0
2.065036368E2,1.879505754E0,8.092648506E0,1.101366401E0
2.066037044E2,1.927391171E0,8.703188896E0,2.123721838E0
2.067037636E2,1.771763325E0,1.188039207E1,2.523565531E0
2.068038382E2,9.529213905E-1,7.676044941E0,1.927391171E0
2.069039114E2,8.020820618E-1,1.247177792E1,3.759011328E-1
2.070039740E2,7.470137477E-1,5.260221958E0,2.791724443E0
2.071040416E2,4.405465722E-1,1.200249958E1,2.205127001E0
2.072041046E2,4.764606953E-1,8.152505875E0,-2.681587934E-1
2.073041738E2,1.637683988E0,6.912271500E0,2.796513081E0
2.074042485E2,9.936240315E-1,1.437762070E1,2.947352171E0
2.075043083E2,2.712713242E0,8.423058510E0,1.019961119E0
2.076043710E2,1.235445857E0,8.004060745E0,2.691164970E0
2.077045117E2,3.660846233E0,1.087958431E1,1.182771802E0
2.078045892E2,1.570644259E0,8.988107681E0,1.628106833E-1
2.079046526E2,2.080624819E0,8.854028702E0,5.985686779E-1
2.080047235E2,1.956122518E0,1.069522572E1,2.478074312E0
2.081047930E2,1.470084786E0,9.586676598E0,1.072635174E0
2.082048576E2,1.285725594E0,7.958569527E0,-3.806896806E-1
2.083049284E2,9.792584181E-1,1.342469883E1,-8.739103079E-1
2.084049895E2,1.551490068E0,5.609786034E0,2.049499273E0
2.085050569E2,2.633702382E-2,1.290035248E1,6.943396926E-1
2.086051281E2,1.163617611E0,8.686429024E0,1.417410731E0
2.087051879E2,1.084606528E0,8.372778893E0,1.309668303E0
2.088052588E2,1.553884387E0,1.181574631E1,1.743032098E0
2.089053285E2,2.123721838E0,6.572284222E0,1.915419817E0
2.090053970E2,2.832427025E0,1.341991043E1,2.451737404E0
2.091054603E2,2.475680113E0,1.000327969E1,3.131711483E0
2.092055276E2,2.006402254E0,5.578660488E0,1.826831698E0
2.093055935E2,4.436591148E0,1.161941528E1,-1.000806928E0
2.094056607E2,1.467690468E0,1.092986488E1,9.744698405E-1
2.095057297E2,1.532335877E0,8.051946640E0,3.955342054E0
2.096058070E2,1.891477108E0,1.109506989E1,1.316851139E0
2.097058545E2,7.781392932E-1,8.403904915E0,1.628106833E0
2.098059321E2,6.392713785E-1,1.073592854E1,9.840469360E-1
2.099059966E2,9.960182905E-1,8.674457550E0,1.192348838E0
2.100060630E2,4.022381604E-1,9.227535248E0,1.532335877E0
2.101061318E2,1.043903828E0,1.178222656E1,9.624984860E-1
2.102061964E2,1.505998850E0,6.419050694E0,4.257020473E0
2.103062632E2,2.092596292E0,1.136562252E1,1.611346960E0
2.104063431E2,2.628913641E0,9.490905762E0,1.201925993E0
2.105064049E2,2.176395893E0,8.308133125E0,1.752609134E0
2.106064685E2,2.214704275E0,1.030735302E1,8.499675393E-1
2.107065380E2,1.386285067E0,9.526819229E0,1.324033976E0
2.108066114E2,2.516382933E0,9.636956215E0,2.245829821E0
2.109066666E2,1.592192769E0,9.009655952E0,2.174001455E0
2.110067350E2,1.975276709E0,1.012299347E1,2.071047783E0
2.111068009E2,1.453324795E0,9.366402626E0,1.197137356E0
2.112068692E2,6.488484740E-1,9.720755577E0,2.171607256E0
2.113069353E2,7.661679387E-1,9.117398262E0,1.235445857E0
2.114070056E2,8.547561169E-1,1.064015770E1,7.278595567E-1
2.115070724E2,7.972934842E-1,8.351230621E0,1.223474383E0
2.116071388E2,7.230709791E-1,1.028341007E1,3.009603500E0
2.117071976E2,2.135693073E0,9.160495758E0,1.972882390E0
2.118072832E2,1.884294271E0,9.304151535E0,2.478074312E0
2.119073410E2,1.805283189E0,1.001046276E1,1.280937076E0
2.120074050E2,2.090201855E0,8.775016785E0,1.561067224E0
2.121074908E2,2.133298874E0,1.009186840E1,2.322446585E0
2.122075468E2,2.044710636E0,9.878777504E0,1.383890867E0
2.123076120E2,1.740637779E0,7.680833817E0,2.183578730E0
2.124076735E2,2.509200096E0,1.090113354E1,3.277762175E0
2.125077466E2,1.290514112E0,9.091061592E0,-1.292908341E-1
2.126078259E2,7.709565163E-1,7.096630573E0,2.106961727E0
