"Time (s)","Gyroscope x (rad/s)","Gyroscope y (rad/s)","Gyroscope z (rad/s)"
2.309648300E-1,8.028724045E-2,2.570948564E-2,1.159513891E-1
3.310395790E-1,5.279830471E-2,1.654650643E-2,-1.660637185E-2
4.311009630E-1,-4.738359526E-2,1.484933943E-1,1.862009019E-1
5.311720820E-1,6.379388273E-2,-2.711710334E-1,9.334937483E-2
6.312319290E-1,2.042244747E-2,-3.799050152E-1,1.153405234E-1
7.312989750E-1,-4.127494246E-2,1.960083470E-2,1.073992774E-1
8.313788300E-1,-2.478158101E-2,-1.398349851E-1,1.758161783E-1
9.314405140E-1,-3.211196512E-2,-1.642696112E-1,8.296465874E-2
1.031503329E0,7.967637479E-2,-3.293357790E-2,3.776063398E-2
1.131569409E0,1.003773790E-2,-3.049011528E-2,2.136898190E-1
1.231635557E0,-9.258762002E-2,-2.339082509E-1,8.785158396E-2
1.331727709E0,-1.732218266E-1,-3.634116948E-1,6.769303232E-2
1.431783822E0,-1.933803856E-1,-4.159460664E-1,-1.110858470E-2
1.531837435E0,1.517584622E-1,-4.416024089E-1,7.217372768E-3
1.631918750E0,-1.212982833E-1,-6.328032017E-1,-3.167336341E-3
1.731977030E0,-6.998561323E-2,-6.010382771E-1,-3.981925175E-2
1.832054047E0,-5.227051675E-2,-6.914463043E-1,-8.380155265E-2
1.932116596E0,1.248119865E-2,-7.458133101E-1,3.653890640E-2
2.032172877E0,-1.451220363E-1,-5.784361959E-1,-1.094578877E-1
2.132244460E0,-1.457328945E-1,-4.666478932E-1,-1.723770201E-1
2.232305811E0,-2.764580548E-1,-5.497255921E-1,-1.754313409E-1
2.332376625E0,-7.670512050E-2,-7.543654442E-1,-4.389066715E-3
2.432448108E0,-3.503727317E-1,-1.040861249E0,5.669745803E-2
2.532513890E0,-3.778617084E-1,-8.582125306E-1,-1.966069825E-2
2.632581671E0,-4.664371610E-1,-5.485038161E-1,-1.674900800E-1
2.732641654E0,-3.070013225E-1,-5.442277789E-1,-1.345033497E-1
2.832722039E0,-1.866608709E-1,-5.601102710E-1,-1.210643277E-1
2.932784053E0,-3.008926809E-1,-6.181424856E-1,-1.112904847E-1
3.032844202E0,-2.428604662E-1,-7.140483260E-1,-1.100687534E-1
3.132919717E0,2.653109841E-2,-9.962680936E-1,5.995642394E-3
3.232977702E0,-4.511655271E-1,-7.507002354E-1,4.081496224E-2
3.333041685E0,-7.677354384E-3,-4.623718560E-1,-2.059745938E-1
3.433130736E0,-1.561860275E-2,-4.825303853E-1,7.196908444E-2
3.533193384E0,6.562647223E-2,-3.566921651E-1,-1.167882681E-1
3.633246864E0,-1.188548282E-1,-2.143605500E-1,-1.314490288E-1
3.733323979E0,-9.075503051E-2,-1.990889311E-1,9.457110614E-2
3.833386692E0,-3.943550289E-1,-3.756289780E-1,-4.833074212E-1
3.933460108E0,-2.417071536E-2,-4.148568958E-2,-1.400011480E-1
4.033517291E0,8.211983740E-2,1.955300272E-1,-1.876486391E-1
4.133597172E0,8.205141872E-3,5.846511722E-1,1.226709038E-1
4.233648554E0,-7.670512050E-2,2.737207711E-1,2.981938794E-2
4.333796988E0,4.546792060E-2,-6.666372530E-3,-1.467206776E-1
4.433858637E0,1.493150145E-1,9.216123261E-3,8.968418092E-2
4.533932884E0,4.363532737E-2,-3.854028285E-1,-1.253403872E-1
4.633998001E0,5.150815938E-3,-4.269416630E-1,-2.841653526E-1
4.734060985E0,1.377085745E-1,2.248515636E-1,-2.071963400E-1
4.834127200E0,-8.586810529E-2,4.624781609E-1,-1.259512454E-1
4.934191449E0,-1.866608709E-1,5.321167707E-1,1.196165755E-1
5.034259029E0,-1.475654840E-1,4.875236154E-1,1.367208064E-1
5.134329512E0,-9.686367959E-2,5.315059423E-1,3.297542036E-1
5.234400395E0,7.051339746E-2,2.767751217E-1,2.859765664E-2
5.334466813E0,1.468715519E-1,3.311421275E-1,2.839393318E-1
5.434525930E0,-2.417071536E-2,-2.662840784E-1,1.721509844E-1
5.534606979E0,-3.401297610E-3,-3.548595607E-1,1.745944470E-1
5.634660092E0,1.835234612E-1,-2.730036378E-1,1.440511942E-1
5.734735072E0,1.493150145E-1,-4.813086689E-1,2.222419381E-1
5.834794652E0,1.487041414E-1,-7.922390699E-1,1.379425377E-1
5.934861634E0,6.990253180E-2,-7.073287964E-1,-1.130100718E-4
6.034928713E0,-2.208693177E-1,-6.395227909E-1,-4.429903328E-1
6.135000827E0,-2.776797712E-1,-4.416024089E-1,-3.079890907E-1
6.235064642E0,3.874840587E-2,-4.299960136E-1,-2.556471154E-3
6.335128725E0,4.485705495E-2,3.181813657E-2,-6.119953468E-2
6.435207005E0,5.035484210E-2,4.349891841E-1,1.821294799E-2
6.535265354E0,-5.104878545E-2,4.893561900E-1,-2.328526676E-1
6.635336237E0,-9.442021698E-2,5.192885995E-1,-1.497749984E-1
6.735402653E0,-8.464637399E-2,6.011445522E-1,-1.155665442E-1
6.835466469E0,-1.561860275E-2,5.461666584E-1,-3.004540689E-2
6.935536685E0,1.603105962E-1,2.920467257E-1,1.882381178E-2
7.035601697E0,-2.190367281E-1,-6.164424494E-2,1.361099333E-1
7.135669814E0,1.413737684E-1,3.115944266E-1,1.214491725E-1
7.235742627E0,1.309890598E-1,-5.858992040E-2,2.546178102E-1
7.335801680E0,3.997013345E-2,-4.434350133E-1,2.472874075E-1
7.435869699E0,-7.853771746E-2,-1.367806643E-1,9.762542695E-2
7.535941486E0,1.163282916E-1,-1.783194989E-1,-8.319067955E-2
7.636007603E0,-6.021176651E-2,4.403544217E-2,9.457110614E-2
7.736074884E0,-1.684033312E-2,1.203936040E-1,1.599336863E-1
7.836143200E0,1.248804033E-1,4.953322932E-2,2.252962589E-1
7.936207813E0,7.723291963E-2,-4.759434611E-2,9.762542695E-2
8.036272661E0,-8.288219571E-3,2.815294638E-2,2.941316226E-3
8.136338341E0,-5.104878545E-2,6.969177723E-2,3.898236528E-2
8.236410787E0,-1.188548282E-1,-2.571211159E-1,-1.540510505E-1
8.336478803E0,2.164417692E-2,9.962418675E-2,2.004554309E-2
8.436550486E0,5.646349862E-2,-9.035491198E-2,-1.589379758E-1
8.536610433E0,6.372546311E-3,-1.239525005E-1,-8.074722439E-2
8.636678248E0,-9.991800785E-2,-9.951788932E-2,-9.724058211E-2
8.736740828E0,-1.219091564E-1,-1.155329403E-2,-4.714963585E-2
8.836809276E0,-1.555067450E-1,-3.049011528E-2,-1.400011480E-1
8.936875157E0,-7.487253100E-2,-2.723927498E-1,-1.760421991E-1
9.036952236E0,-2.722504176E-2,-2.675058246E-1,-1.235077903E-1
9.137010285E0,4.180273041E-2,-2.693384290E-1,-5.570174754E-2
9.237079932E0,1.248804033E-1,-1.276176870E-1,-1.904983260E-2
9.337143983E0,5.035484210E-2,-2.315973490E-2,-4.776049778E-2
9.437219903E0,-6.632041931E-2,1.423847526E-1,3.104111739E-2
9.537278885E0,3.202888370E-2,6.175053492E-2,1.183948442E-1
9.637344801E0,-1.078592539E-1,2.651686668E-1,3.470630944E-2
9.737413653E0,1.395411640E-1,3.256443143E-1,3.552181413E-3
9.837481499E0,-1.530632824E-1,1.649867594E-1,2.088029087E-1
9.937551945E0,1.560345292E-1,6.358312815E-2,1.978073269E-1
1.003761943E1,-1.195341069E-2,2.370688617E-1,2.356809676E-1
1.013768758E1,8.334156871E-2,1.668193489E-1,8.662985265E-2
1.023775153E1,-1.286286712E-1,6.480485946E-2,2.371073514E-2
1.033782211E1,1.089979112E-1,-9.463096410E-2,2.493246458E-2
1.043788509E1,5.646349862E-2,-7.691587508E-2,9.396023303E-2
1.053795247E1,-1.683349162E-1,-1.380023956E-1,-7.830376178E-2
1.063801702E1,-3.150109947E-2,-4.087482393E-2,-2.957717776E-1
1.073808387E1,-4.066407681E-2,3.792679310E-2,-1.705444157E-1
1.083815801E1,1.981158182E-2,1.497151405E-1,-1.735987365E-1
1.093821856E1,1.450389624E-1,9.046120197E-2,-3.238715827E-1
1.103828777E1,1.083870381E-1,-2.736144662E-1,4.448015243E-2
1.113835326E1,-9.258762002E-2,-1.777086407E-1,1.849791557E-1
1.123842860E1,-1.512306780E-1,-8.363538980E-2,6.524956971E-2
1.133849699E1,1.010566577E-1,-1.282285601E-1,7.624514401E-2
1.143856700E1,-5.471397936E-2,-1.282285601E-1,-7.769289613E-2
1.153862282E1,9.861319512E-2,6.541572511E-2,-8.074722439E-2
1.163868640E1,-1.353481859E-1,2.279058844E-1,7.502341270E-2
1.173875368E1,-1.090809852E-1,1.600998342E-1,3.853429556E-1
1.183893878E1,-1.726109833E-1,-2.315973490E-2,1.672640741E-1
1.193900463E1,1.370977014E-1,9.107206762E-2,2.326266468E-1
1.203907227E1,-2.361409664E-1,3.914852068E-2,1.428294480E-1
1.213914416E1,-1.011397392E-1,-9.829615802E-2,1.764270514E-1
1.223921327E1,1.395411640E-1,-6.042251736E-2,-1.210643277E-1
1.233928015E1,-2.355985157E-2,-2.137496918E-1,1.049558073E-1
1.243934417E1,1.279347241E-1,-1.929802746E-1,-1.314490288E-1
1.253940778E1,-1.280178130E-1,-4.820520803E-2,-8.563414961E-2
1.263947513E1,5.340916663E-2,3.487246484E-2,-3.403649628E-1
1.273953934E1,-1.304612756E-1,2.204429358E-2,-2.994369864E-1
1.283961069E1,3.325061873E-2,-7.202894986E-2,-2.493460178E-1
1.293967631E1,8.816007525E-3,1.998060793E-1,-2.016985416E-1
1.303974529E1,-4.188580811E-2,4.863018692E-1,-1.357250959E-1
1.313981324E1,-7.670512050E-2,4.991300404E-1,2.126727253E-2
1.323988332E1,3.263975307E-2,4.007807374E-1,1.354990751E-1
1.333994677E1,1.096087694E-1,4.007807374E-1,1.409968585E-1
1.344001325E1,2.638937731E-4,3.256443143E-1,1.342773438E-1
1.354008730E1,5.646349862E-2,2.615034878E-1,1.275578290E-1
1.364014329E1,2.934792042E-1,3.781787455E-1,9.090591222E-2
1.374021164E1,8.273070306E-2,3.494680822E-1,1.519924253E-1
1.384028005E1,1.529802084E-1,4.911888242E-1,2.472874075E-1
1.394034844E1,-5.715744197E-2,5.370036960E-1,3.407498002E-1
1.404041975E1,2.995878458E-1,3.891743124E-1,2.143006921E-1
1.414048343E1,-1.774978936E-1,3.396942019E-1,6.341698021E-2
1.424054941E1,2.513295114E-1,3.427485228E-1,-1.259512454E-1
1.434062273E1,-9.509949945E-3,5.498318672E-1,-2.982152402E-1
1.444068574E1,1.792474091E-1,6.524572372E-1,-4.837136343E-2
1.454075656E1,1.273238659E-1,3.946720958E-1,1.245035008E-1
1.464081784E1,-3.344902694E-1,7.813497782E-1,4.997793958E-2
1.474088642E1,1.614639163E-2,9.016902447E-1,-1.021274999E-1
1.484095640E1,-6.143349409E-2,4.227718711E-1,-8.624500781E-2
1.494102095E1,3.318219911E-3,-3.049011528E-2,1.697075367E-1
1.504108697E1,-2.050552331E-2,4.026133418E-1,-3.493232653E-2
1.514115768E1,2.855379581E-1,2.217972279E-1,2.124680877E-1
1.524122016E1,-1.512306780E-1,5.113473535E-1,4.448015243E-2
1.534128818E1,1.328216493E-1,7.758519650E-1,4.012254775E-1
1.544136132E1,1.389302909E-1,2.670012414E-1,1.330556124E-1
1.554142514E1,2.330035567E-1,4.997408986E-1,8.418639004E-2
1.564149209E1,8.700676262E-2,5.357819796E-1,2.057485878E-1
1.574156330E1,1.987951100E-1,2.022495419E-1,3.841212094E-1
1.584162788E1,-1.096918508E-1,3.036531806E-1,4.177187979E-1
1.594170010E1,2.653109841E-2,6.724832207E-2,1.760208048E-2
1.604175845E1,-9.686367959E-2,3.451920152E-1,2.045268416E-1
1.614182386E1,1.994059533E-1,1.051219702E-1,-2.420156449E-1
1.624190428E1,3.857198358E-1,2.254624218E-1,3.898236528E-2
1.634196153E1,2.855379581E-1,-1.074591354E-1,-5.997780338E-2
1.644202608E1,3.386148065E-2,-6.225510687E-2,-3.126713634E-2
1.654209353E1,-1.378600672E-2,-8.730058372E-2,-1.100687534E-1
1.664215704E1,-2.947840393E-1,1.332217753E-1,-1.760421991E-1
1.674223222E1,-1.017506048E-1,1.532477699E-2,-1.601596922E-1
1.684229381E1,8.700676262E-2,-3.591356277E-1,-1.552727818E-1
1.694237139E1,1.670301110E-1,-4.148568958E-2,-5.203655735E-2
1.704243040E1,2.128449976E-1,-1.361698061E-1,-2.633959353E-1
1.714249875E1,-3.150109947E-2,3.792679310E-2,2.271288633E-1
1.724256226E1,-3.479292989E-1,4.887453318E-1,2.350701094E-1
1.734262935E1,-1.921586543E-1,2.859380841E-1,2.283505797E-1
1.744270113E1,-4.578850269E-1,2.547839582E-1,2.338483781E-1
1.754276481E1,1.480932832E-1,1.521585882E-1,1.275578290E-1
1.764282939E1,1.096087694E-1,3.183139265E-1,1.342773438E-1
1.774290411E1,2.702663243E-1,2.419557869E-1,9.049968794E-3
1.784296596E1,-2.019324899E-1,5.131799579E-1,2.747763395E-1
1.794303420E1,1.254912764E-1,2.230189741E-1,-2.515848540E-2
1.804310568E1,7.662204653E-2,2.150777131E-1,8.724072576E-2
1.814317513E1,7.234599441E-2,1.943082958E-1,9.660834447E-3
1.824323521E1,-4.860532656E-2,3.170921803E-1,-9.174279869E-2
1.834330180E1,2.592023462E-2,-1.277502440E-2,-1.748204678E-1
1.844336698E1,5.524176359E-2,-1.367806643E-1,-1.137339473E-1
1.854344052E1,6.990253180E-2,-2.216909379E-1,-3.493232653E-2
1.864350354E1,2.164417692E-2,-2.546776533E-1,1.385534108E-1
1.874356985E1,1.151065603E-1,-3.084338009E-1,1.037340835E-1
1.884363597E1,1.835234612E-1,-3.365336061E-1,2.187814005E-2
1.894370395E1,-1.469546407E-1,5.442015082E-2,1.128970534E-1
1.904376950E1,-1.048049331E-1,3.181813657E-2,1.739835888E-1
1.914383748E1,-1.713892370E-1,1.827018559E-1,1.929204166E-1
1.924390369E1,-4.249667376E-2,9.826988913E-3,2.967674732E-1
1.934397621E1,9.006109089E-2,-7.202894986E-2,2.485091388E-1
1.944404815E1,5.096571147E-2,4.159198329E-2,1.367208064E-1
1.954410490E1,-3.277707398E-1,1.252805144E-1,3.165198490E-2
1.964417448E1,-2.544669211E-1,3.914852068E-2,8.601898700E-2
1.974423999E1,-7.059647143E-2,-2.377059869E-2,3.348457813E-2
1.984430821E1,8.028724045E-2,-1.086808667E-1,-1.369468272E-1
1.994438339E1,-8.220291138E-2,-1.331154853E-1,-7.463857532E-2
2.004444264E1,-2.129280716E-1,1.349218097E-2,-1.766530573E-1
2.014451086E1,-3.394456208E-2,-9.720697999E-3,-2.304092050E-1
2.024458170E1,7.356772572E-2,9.840244800E-2,-3.745734096E-1
2.034464992E1,2.293383628E-1,-2.926838771E-2,-2.224679589E-1
2.044470930E1,4.974398017E-2,-1.551066339E-1,-1.125122160E-1
2.054477598E1,2.531621158E-1,-2.827774584E-1,1.971964538E-1
2.064484007E1,-7.853771746E-2,-8.241366595E-2,5.486486107E-2
2.074490782E1,-1.439687237E-2,1.704845428E-1,8.296465874E-2
2.084498633E1,-5.837916955E-2,1.478825361E-1,9.762542695E-2
2.094504575E1,-2.031542361E-1,3.134270012E-1,4.448015243E-2
2.104511107E1,9.372626990E-2,7.396784425E-2,4.336013198E-1
2.114517883E1,-9.197676182E-2,-3.609682024E-1,3.780125678E-1
2.124524624E1,1.719170213E-1,-7.543654442E-1,1.342773438E-1
2.134531972E1,-1.506198347E-1,-5.674406886E-1,-1.945605734E-3
2.144538100E1,-2.526343167E-1,-4.587066770E-1,-1.033492386E-1
2.154544745E1,1.041109860E-1,-2.620080709E-1,-2.884414196E-1
2.164551200E1,-1.781087667E-1,1.387195587E-1,-6.669732183E-2
2.174558201E1,-1.939912587E-1,-6.775289774E-2,-1.130100718E-4
2.184565443E1,-6.754214317E-2,-7.813760638E-2,-1.479423940E-1
2.194572124E1,2.707354724E-3,7.763303071E-2,-1.839834452E-1
2.204578592E1,-7.975945622E-2,1.533803195E-1,-3.371059895E-2
2.214585831E1,-1.891043335E-1,2.841055095E-1,5.730832368E-2
2.224591972E1,-1.012081560E-2,3.415268362E-1,1.916986704E-1
2.234598464E1,1.108305082E-1,1.588781178E-1,-6.181039661E-2
2.244605699E1,-2.722504176E-2,3.048748970E-1,-1.088470221E-1
2.254612656E1,-5.715744197E-2,4.191066921E-1,1.929204166E-1
2.264618848E1,-7.303993404E-2,2.370688617E-1,2.088029087E-1
2.274625173E1,1.615323126E-1,3.107471392E-3,4.264755547E-2
2.284632001E1,9.128281474E-2,8.190909028E-2,-2.576934919E-2
2.294638879E1,-3.883148357E-2,1.900322437E-1,-2.576934919E-2
2.304645378E1,7.234599441E-2,1.043785457E-2,7.807774097E-2
2.314652419E1,5.218743905E-2,-1.166221127E-1,5.119966716E-2
2.324658827E1,-7.066489197E-3,-9.524183720E-2,-1.112904847E-1
2.334666176E1,7.845464349E-2,2.693121508E-2,1.104535982E-1
2.344674411E1,1.041109860E-1,-9.720697999E-3,-7.158424705E-2
2.354680326E1,1.413737684E-1,7.885476202E-2,8.174293488E-2
2.364686344E1,-9.380935878E-2,-6.286597252E-2,1.159513891E-1
2.374692093E1,-1.806206256E-2,-1.361698061E-1,6.891476363E-2
2.384699901E1,-3.516628966E-2,-1.606044173E-1,-9.275988676E-3
2.394706470E1,-9.136588871E-2,-1.636587381E-1,7.563427836E-2
2.404712434E1,-1.158005074E-1,-2.021432519E-1,-1.233031508E-2
2.414719186E1,1.120522320E-1,-3.110098280E-2,-1.049771905E-2
2.424726044E1,2.286590822E-2,4.708976671E-2,-8.257982135E-2
2.434733042E1,-1.267960668E-1,2.419557869E-1,9.396023303E-2
2.444740196E1,1.144956946E-1,-9.218750894E-2,-1.790965199E-1
2.454746758E1,-2.000999004E-1,1.130632162E-1,5.853005126E-2
2.464752486E1,-8.708983660E-2,9.168293327E-2,8.540812880E-2
2.474760744E1,-3.577031195E-1,3.164813519E-1,3.592804074E-2
2.484767132E1,1.858985052E-2,2.663903832E-1,4.570188001E-2
2.494774497E1,3.136377633E-1,1.509368569E-1,5.608659238E-2
2.504780145E1,-1.573393345E-1,4.386543930E-1,1.012906209E-1
2.514787070E1,1.450389624E-1,1.179501340E-1,-1.271729767E-1
2.524793052E1,2.543838322E-1,2.326602489E-2,-1.711552739E-1
2.534799790E1,2.323926836E-1,-3.110098280E-2,-1.088470221E-1
2.544806774E1,1.823017448E-1,5.564188212E-2,-2.576934919E-2
2.554813212E1,2.812618911E-1,1.326109022E-1,-1.387794167E-1
2.564820044E1,2.696554661E-1,5.442015082E-2,-4.959309474E-2
2.574826439E1,2.244514376E-1,-4.947476983E-1,-1.259512454E-1
2.584834151E1,3.014204800E-1,-7.433698773E-1,-6.547559053E-2
2.594840256E1,3.874840587E-2,-3.951766789E-1,-1.966069825E-2
2.604847631E1,-7.853771746E-2,-5.125953630E-2,1.110644639E-1
2.614854419E1,-2.269779742E-1,-4.006744623E-1,3.731256425E-1
2.624873526E1,-2.153715342E-1,-8.093433380E-1,3.969494104E-1
2.634880344E1,3.997013345E-2,-7.323742509E-1,3.853429556E-1
2.644886969E1,-1.512306780E-1,-8.001803160E-1,1.409968585E-1
2.654893674E1,-1.744435728E-1,-2.430712283E-1,2.330451040E-3
2.664899949E1,-2.074302882E-1,4.892236367E-2,-5.203655735E-2
2.674906614E1,-4.945369661E-1,9.102423787E-1,-1.870377809E-1
2.684913882E1,1.553552505E-2,7.434761524E-1,-5.631261319E-2
2.694920674E1,1.004457921E-1,6.426833868E-1,-2.432373762E-1
2.704927192E1,1.615323126E-1,5.370036960E-1,-6.975165009E-2
2.714933963E1,1.236586794E-1,2.260732949E-1,1.538250297E-1
2.724940755E1,3.240224719E-1,-1.080700010E-1,9.579282999E-2
2.734947416E1,-3.503727317E-1,1.471391134E-2,7.868860662E-2
2.744954078E1,-4.145136178E-1,2.236298174E-1,-3.778201528E-3
2.754960979E1,-3.100556731E-1,3.659614325E-1,-1.833725870E-1
2.764967611E1,-4.896500111E-1,3.677940369E-1,2.234636694E-1
2.774973866E1,-7.548339665E-2,-4.147243798E-1,-5.199593306E-1
2.784981691E1,6.196128577E-2,-1.155329403E-2,2.784415185E-1
2.794987880E1,8.816007525E-3,-4.159460664E-1,-7.647116482E-2
2.804994761E1,-1.561176181E-1,-2.668949664E-1,-1.674900800E-1
2.815001129E1,1.419846416E-1,-1.789303720E-1,-1.949790120E-1
2.825007797E1,8.883935213E-2,-2.620080709E-1,-1.955898851E-1
2.835015065E1,5.096571147E-2,-4.751999974E-1,-1.809291244E-1
2.845021093E1,1.957407743E-1,-1.337263435E-1,-3.309973329E-2
2.855027825E1,6.929166615E-2,-1.099025980E-1,8.052120358E-2
2.865034816E1,4.180273041E-2,3.158704937E-1,1.031232178E-1
2.875041141E1,1.572562605E-1,3.714592159E-1,1.122861952E-1
2.885048293E1,1.566454023E-1,-3.537703678E-2,8.662985265E-2
2.895054784E1,-1.017506048E-1,8.007649332E-2,1.251143664E-1
2.905061729E1,-4.982705787E-2,-5.675732344E-2,1.149342954E-2
2.915068654E1,4.180273041E-2,1.161175370E-1,8.846244961E-2
2.925075752E1,1.089979112E-1,2.266841531E-1,-8.319067955E-2
2.935082557E1,9.678059816E-2,4.991300404E-1,7.563427836E-2
2.945088208E1,-8.647897094E-2,6.487920284E-1,1.642097533E-1
2.955095826E1,-8.525723964E-2,3.513006568E-1,2.081920356E-1
2.965101598E1,9.678059816E-2,1.802583933E-1,6.463870406E-2
2.975108499E1,1.682518274E-1,2.046930045E-1,6.524956971E-2
2.985115201E1,2.207862586E-1,-2.132713981E-2,2.798679098E-2
2.995121885E1,1.761930883E-1,-1.520523131E-1,-2.943454124E-2
3.005128850E1,-4.921618849E-2,-9.646356106E-2,1.699121669E-2
3.015135315E1,2.592023462E-2,-3.304249644E-1,-1.161774099E-1
3.025142237E1,-1.640588492E-1,-3.939549327E-1,-6.364299357E-2
3.035148765E1,-6.815301627E-2,-5.100193620E-1,-6.303212792E-2
3.045155780E1,-5.410310999E-2,-2.748362124E-1,-1.503858715E-1
3.055162241E1,1.236586794E-1,-4.446567297E-1,1.027169917E-2
3.065169442E1,5.157657713E-2,-7.019636035E-2,-1.937572956E-1
3.075176427E1,-9.319848567E-2,4.026133418E-1,1.576948725E-2
3.085182389E1,-7.242906839E-2,2.016386688E-1,2.246854007E-1
3.095189033E1,-1.066375300E-1,1.747606099E-1,2.961566448E-1
3.105196911E1,9.128281474E-2,-1.276176870E-1,1.971964538E-1
3.115202786E1,-1.684033312E-2,-3.904222697E-2,1.605445594E-1
3.125209211E1,-1.884934753E-1,-2.682492696E-2,-4.653877020E-2
3.135216285E1,-5.776830390E-2,-1.460762043E-2,-7.341683656E-2
3.145222840E1,1.004457921E-1,-2.865752019E-2,-4.043011367E-2
3.155229382E1,-1.151896343E-1,-3.001180943E-3,-3.371059895E-2
3.165235667E1,-2.599647045E-1,-5.675732344E-2,-1.131230742E-1
3.175242132E1,-1.121353135E-1,3.928395212E-1,-2.328526676E-1
3.185250023E1,4.119186476E-2,6.908091903E-2,-6.608645618E-2
3.195256028E1,-9.869627655E-2,-2.497907430E-1,1.638035290E-2
3.205262746E1,4.424619302E-2,-6.897462159E-2,8.235380054E-2
3.215269611E1,3.173029423E-1,-3.200402558E-1,3.898236528E-2
3.225276489E1,3.337963223E-1,-2.071627229E-2,1.953638643E-1
3.235283570E1,-1.683349162E-1,4.881345034E-1,8.540812880E-2
3.245290095E1,-1.976564527E-1,3.067075014E-1,1.348882169E-1
3.255296296E1,2.103331126E-2,-2.076410353E-1,8.174293488E-2
3.265303335E1,9.739146382E-2,-3.719637692E-1,2.179658860E-1
3.275309463E1,-6.570954621E-2,-3.322575390E-1,9.151677787E-2
3.285316761E1,-4.444460273E-1,-1.838172972E-1,-1.662683636E-1
3.295324316E1,3.447234631E-2,-1.813738197E-1,-4.808639586E-1
3.305329941E1,7.967637479E-2,1.845344603E-1,-4.776049778E-2
3.315337899E1,2.439991236E-1,1.191718653E-1,1.271515992E-2
3.325343424E1,-5.593570694E-2,3.763461411E-1,-1.815399975E-1
3.335349998E1,-1.158005074E-1,3.091509640E-1,-2.145267129E-1
3.345358197E1,1.614639163E-2,3.384725153E-1,-1.112904847E-1
3.355379207E1,-2.825667262E-1,3.853765503E-2,7.502341270E-2
3.365385499E1,1.431379374E-2,-4.153352380E-1,8.907331526E-2
3.375392870E1,-2.825667262E-1,-2.363516986E-1,2.741655111E-1
3.385400405E1,-2.300323099E-1,1.898996718E-2,6.036264822E-2
3.395406160E1,-1.622262597E-1,1.973626316E-1,8.052120358E-2
3.405412931E1,7.540032268E-2,2.101908028E-1,1.361099333E-1
3.415419453E1,1.896321326E-1,-1.868716180E-1,1.703183949E-1
3.425426247E1,7.594276685E-3,-2.621405944E-2,1.837574244E-1
3.435433742E1,1.132739633E-1,-1.557174921E-1,9.457110614E-2
3.445440230E1,1.548127979E-1,-1.435001791E-1,-8.257982135E-2
3.455447148E1,-1.280178130E-1,-1.728217155E-1,-9.601885080E-2
3.465452777E1,-8.288219571E-3,-6.592030078E-2,-2.432373762E-1
3.475460578E1,-2.135389447E-1,2.743316293E-1,-2.145267129E-1
3.485467139E1,6.684820354E-2,3.060966134E-1,-2.194136381E-1
3.495473160E1,6.623734534E-2,1.888104975E-1,-1.711552739E-1
3.505479965E1,1.492465939E-2,1.210044622E-1,-1.599550620E-2
3.515486723E1,4.363532737E-2,-1.862607598E-1,1.599336863E-1
3.525493285E1,4.424619302E-2,-2.284104675E-1,5.058880523E-2
3.535499989E1,-6.326609105E-2,1.863670498E-1,3.071522117E-1
3.545506677E1,1.675725542E-2,-4.222911317E-3,2.197984755E-1
3.555514252E1,-5.288138241E-2,1.527694613E-1,1.916986704E-1
3.565520150E1,8.517416567E-2,-7.141809165E-2,1.049558073E-1
3.575528015E1,1.346542537E-1,-2.510124743E-1,1.128970534E-1
3.585534244E1,-2.239236385E-1,-1.648804843E-1,6.708216667E-2
3.595540955E1,-1.280178130E-1,-1.141786575E-1,-6.486472487E-2
3.605547760E1,-2.905763872E-2,3.242900595E-2,1.483272463E-1
3.615554405E1,2.097906768E-1,4.464630783E-2,-2.615633309E-1
3.625561390E1,-1.463437676E-1,1.998060793E-1,-2.004768103E-1
3.635567048E1,-3.089023381E-2,3.024314344E-1,-2.969935238E-1
3.645574186E1,-1.530632824E-1,-5.003780499E-2,-2.297983468E-1
3.655580588E1,2.146776021E-1,-2.180257440E-1,-2.821280994E-2
3.665587416E1,-1.512306780E-1,-1.795412302E-1,2.833284736E-1
3.675594001E1,1.736812107E-2,-3.982309997E-1,2.155224085E-1
3.685601456E1,-2.776797712E-1,3.232008815E-1,-1.186208650E-1
3.695607448E1,-1.195341069E-2,-7.325068861E-2,1.916986704E-1
3.705614292E1,-2.233812027E-2,-6.775289774E-2,5.119966716E-2
3.715620784E1,3.289093971E-1,2.496606437E-3,8.540812880E-2
3.725628225E1,1.529802084E-1,1.515477300E-1,-2.576934919E-2
3.735634227E1,7.173512876E-2,5.686361343E-2,-8.441241086E-2
3.745641641E1,1.823017448E-1,9.595899284E-2,1.454775594E-2
3.755647833E1,3.631178737E-1,1.130632162E-1,3.653890640E-2
3.765653974E1,9.006109089E-2,1.423847526E-1,-1.308381706E-1
3.775661286E1,-3.845812082E-1,2.242406905E-1,-1.406120211E-1
3.785667788E1,-1.878826022E-1,3.299203813E-1,-2.010876834E-1
3.795674493E1,-2.269779742E-1,2.175211757E-1,-8.807760477E-2
3.805683551E1,1.120522320E-1,-1.801521033E-1,-7.238753606E-4
3.815688442E1,1.487041414E-1,-5.248126760E-2,7.502341270E-2
3.825695613E1,2.696554661E-1,2.021169849E-2,1.916986704E-1
3.835701341E1,-9.503108263E-2,1.837910339E-2,1.825357080E-1
3.845709206E1,3.318219911E-3,1.655976325E-1,2.191876024E-1
3.855715068E1,-3.455542400E-2,-2.424603552E-1,1.617662758E-1
3.865722580E1,7.112426311E-2,-1.685456634E-1,1.959747374E-1
3.875728064E1,-1.280178130E-1,-1.337263435E-1,-2.210415900E-2
3.885736587E1,-2.104846239E-1,-5.736818537E-2,-2.139158547E-1
3.895741825E1,8.395243436E-2,7.091351599E-2,-2.149329334E-2
3.905748580E1,6.073955074E-2,7.994392887E-3,-7.524943352E-2
3.915755377E1,-2.600331046E-2,2.309602052E-1,-1.180099994E-1
3.925762579E1,-5.654657260E-2,2.217972279E-1,-1.876486391E-1
3.935769790E1,-2.722504176E-2,2.749425173E-1,-1.925355643E-1
3.945775538E1,-1.745119877E-2,-4.209655896E-2,-1.167882681E-1
3.955783057E1,8.883935213E-2,-3.835702240E-1,1.226709038E-1
3.965788125E1,-8.647897094E-2,-1.239525005E-1,2.004554309E-2
3.975795760E1,-3.944234923E-2,-5.858992040E-2,1.764270514E-1
3.985802698E1,-1.994890422E-1,2.431775033E-1,2.008616477E-1
3.995809750E1,-8.953329176E-2,8.374168724E-2,3.254781663E-1
4.005816064E1,3.569407761E-2,4.525717348E-2,2.124680877E-1
4.015822586E1,-3.944234923E-2,-2.051975727E-1,1.892552227E-1
4.025829387E1,-3.485401571E-1,-2.193800360E-2,-7.463857532E-2
4.035835559E1,-1.720001101E-1,-4.881607369E-2,-1.155665442E-1
4.045842551E1,1.485624351E-3,2.265515924E-2,4.163046833E-3
4.055849002E1,-1.256427635E-2,-1.630478799E-1,-2.572872937E-1
4.065855594E1,-2.790432423E-3,9.718071669E-2,-2.157484442E-1
4.075884793E1,1.071653143E-1,1.289457083E-1,-2.297983468E-1
4.085891975E1,6.623734534E-2,4.098111764E-2,-1.259512454E-1
4.095898709E1,3.691580892E-2,-2.717818916E-1,-9.235365689E-2
4.105905238E1,-7.853771746E-2,-2.479581386E-1,2.554333024E-2
4.115912692E1,-2.789015174E-1,-3.353118598E-1,-7.238753606E-4
4.125918720E1,-3.089023381E-2,-7.386154681E-2,6.647130102E-2
4.135926492E1,-1.127461791E-1,1.471391134E-2,1.776487678E-1
4.145932156E1,-3.577715531E-2,2.089690566E-1,2.615419589E-2
4.155939312E1,-5.288138241E-2,1.808692664E-1,1.422186047E-1
4.165945270E1,-1.359590590E-1,4.464630783E-2,2.204093486E-1
4.175952798E1,-1.426785737E-1,-5.577199627E-4,5.058880523E-2
4.185960313E1,2.207862586E-1,-9.585270286E-2,-1.900921017E-1
4.195965645E1,1.951299161E-1,-4.222911317E-3,-1.130100718E-4
4.205972486E1,8.517416567E-2,2.340145409E-1,-4.898223281E-2
4.215979364E1,-1.732218266E-1,3.042640388E-1,-9.662972391E-2
4.225986369E1,1.346542537E-1,3.360290229E-1,-1.387794167E-1
4.235992951E1,3.569407761E-2,1.546020508E-1,6.830389053E-2
4.245999239E1,-1.738326997E-1,-2.051975727E-1,1.409968585E-1
4.256005864E1,-2.050552331E-2,-4.825303853E-1,1.721509844E-1
4.266012139E1,7.601118833E-2,-2.039758414E-1,3.552181413E-3
4.276019047E1,-7.670512050E-2,-6.666372530E-3,1.073992774E-1
4.286026842E1,-1.445111632E-1,4.281371459E-2,1.043449491E-1
4.296032787E1,7.234599441E-2,-9.279836714E-2,1.135079265E-1
4.306039445E1,-9.578366880E-4,-1.166221127E-1,1.232817695E-1
4.316046600E1,-1.390133798E-1,-2.332973778E-1,1.293904334E-1
4.326053342E1,-8.892243356E-2,-8.498968557E-3,2.798679098E-2
4.336059590E1,1.377085745E-1,9.534811974E-2,-2.151375711E-1
4.346066644E1,2.751532495E-1,2.376797199E-1,-9.540799260E-2
4.356073893E1,1.499258727E-1,3.091509640E-1,-1.051818281E-1
4.366079338E1,9.433714300E-2,2.150777131E-1,1.943467744E-2
4.376086216E1,-1.439687237E-2,-3.110098280E-2,-1.650466323E-1
4.386093178E1,-1.310721338E-1,-2.772796750E-1,-1.564945132E-1
4.396099906E1,-7.792685926E-2,-2.925513089E-1,-3.065627255E-2
4.406106630E1,2.073472142E-1,-5.509473085E-1,7.441255450E-2
4.416113348E1,8.700676262E-2,-3.224837184E-1,9.090591222E-2
4.426120253E1,-5.471397936E-2,5.075496063E-2,1.073992774E-1
4.436126745E1,-1.267960668E-1,1.741497368E-1,1.733727306E-1
4.446134053E1,4.539950285E-3,1.460499465E-1,1.532141715E-1
4.456141304E1,2.391121984E-1,8.435254544E-2,2.004554309E-2
4.466147259E1,-2.227019221E-1,1.130632162E-1,4.386929050E-2
4.476153368E1,3.874840587E-2,1.301674545E-1,-1.355204545E-2
4.486160359E1,4.541367888E-1,-1.612152904E-1,-5.448001996E-2
4.496167624E1,-1.078592539E-1,1.814801246E-1,1.409968585E-1
4.506174065E1,8.089810610E-2,1.613215655E-1,-2.236896902E-1
4.516180447E1,-1.585610658E-1,1.613215655E-1,-9.174279869E-2
4.526187328E1,-4.188580811E-2,-2.132713981E-2,-2.359070033E-1
4.536195270E1,7.967637479E-2,1.118414849E-1,-1.082361639E-1
4.546201014E1,1.596997231E-1,-3.029360175E-1,1.821294799E-2
4.556207679E1,2.690446079E-1,-1.355589479E-1,-3.615406156E-2
4.566213658E1,1.474824250E-1,-1.582935080E-2,-7.443393115E-3
4.576220936E1,-1.646697223E-1,1.772040725E-1,1.324447542E-1
4.586227891E1,-3.638802096E-2,3.097618222E-1,9.457110614E-2
4.596234379E1,8.816007525E-3,2.071364522E-1,2.491200119E-1
4.606241374E1,-8.525723964E-2,6.969177723E-2,2.210202068E-1
4.616248135E1,-1.035832018E-1,-5.920078233E-2,-9.418625385E-2
4.626255490E1,-8.586810529E-2,5.075496063E-2,3.653890640E-2
4.636261045E1,5.402003601E-2,-1.460762043E-2,-1.888703704E-1
4.646267933E1,1.920071617E-2,2.193537802E-1,-9.968404472E-2
4.656274585E1,7.845464349E-2,8.251994848E-2,-6.486472487E-2
4.666281369E1,-1.256427635E-2,2.865489423E-1,-8.257982135E-2
4.676287678E1,-4.982705787E-2,4.673650563E-1,-6.364299357E-2
4.686295323E1,5.951782316E-2,3.561875820E-1,1.515862066E-2
4.696301264E1,-4.188580811E-2,-1.582935080E-2,2.399570346E-1
4.706307906E1,8.395243436E-2,3.181813657E-2,2.466765493E-1
4.716315531E1,-7.066489197E-3,5.991793796E-2,1.440511942E-1
4.726321959E1,-1.988781691E-1,-1.208981723E-1,2.619481683E-1
4.736328990E1,-2.404170036E-1,-2.271887213E-1,3.193694949E-1
4.746335668E1,-8.586810529E-2,-3.383662105E-1,1.660423428E-1
4.756342497E1,6.684820354E-2,-4.709239602E-1,1.080101430E-1
4.766348421E1,-1.060266569E-1,-4.806978106E-1,3.531717137E-2
4.776355250E1,-2.227019221E-1,-3.102663755E-1,-1.522184610E-1
4.786362388E1,-1.548958719E-1,-2.962164879E-1,-1.882595122E-1
4.796558814E1,-3.401297610E-3,-4.318285882E-1,-2.786675692E-1
4.806566439E1,5.096571147E-2,-4.331828654E-2,-2.591198683E-1
4.816572270E1,-3.760975227E-2,9.229379892E-2,-3.770168722E-1
4.826578845E1,1.675725542E-2,1.350543648E-1,-2.743915021E-1
4.836587196E1,9.678059816E-2,2.657795548E-1,-3.599126339E-1
4.846592841E1,1.419846416E-1,1.484933943E-1,-1.721723750E-2
4.856599053E1,-4.066407681E-2,3.983372748E-1,4.875621200E-2
4.866605467E1,1.236586794E-1,4.831150174E-2,2.863827944E-1
4.876612696E1,-3.089023381E-2,3.836764991E-1,7.135822624E-2
4.886619714E1,4.119186476E-2,6.549006701E-1,2.717220187E-1
4.896625889E1,1.431379374E-2,9.107206762E-2,1.959747374E-1
4.906632640E1,5.218743905E-2,6.236140057E-2,4.317687154E-1
4.916640022E1,-1.958238482E-1,-1.526631564E-1,3.175369203E-1
4.926646597E1,-2.294214368E-1,-3.145424426E-1,2.554333024E-2
4.936653492E1,-6.632041931E-2,-2.070301622E-1,-1.290055662E-1
4.946659690E1,7.051339746E-2,-2.210800797E-1,-8.319067955E-2
4.956666665E1,-9.686367959E-2,-1.673239321E-1,-1.064035669E-1
4.966672683E1,-1.017506048E-1,-4.820520803E-2,-3.312019706E-1
4.976679311E1,-1.011397392E-1,2.932684720E-1,-2.010876834E-1
4.986686256E1,4.302445799E-2,1.698736846E-1,-1.613814384E-1
4.996693587E1,1.346542537E-1,-5.309213325E-2,2.004554309E-2
5.006699605E1,2.238405794E-1,6.236140057E-2,1.208383068E-1
5.016706373E1,1.322107911E-1,-2.491798699E-1,5.119966716E-2
5.026713175E1,-4.249667376E-2,-6.714203209E-2,2.136898190E-1
5.036719770E1,-8.098118752E-2,2.724990547E-1,8.113206178E-2
5.046726811E1,6.562647223E-2,7.824389637E-2,1.593228132E-1
5.056733209E1,2.096489538E-3,4.770063236E-2,3.132608533E-1
5.066739941E1,-2.398061454E-1,4.953322932E-2,2.540069222E-1
5.076746870E1,-2.544669211E-1,-1.129569262E-1,3.898236528E-2
5.086754284E1,-1.017506048E-1,1.423847526E-1,-2.139158547E-1
5.096760309E1,4.539950285E-3,1.710954159E-1,-1.882595122E-1
5.106767104E1,-5.410310999E-2,1.521585882E-1,-1.662683636E-1
5.116773596E1,-4.005321115E-2,1.173392683E-1,2.920852043E-2
5.126780777E1,-1.090809852E-1,-1.037939489E-1,-1.693226844E-1
5.136786865E1,1.125946827E-2,4.098111764E-2,-3.104325533E-1
5.146793574E1,4.058100283E-2,1.600998342E-1,1.220600381E-1
5.156800275E1,1.138848290E-1,-4.489327967E-1,1.165622473E-1
5.166806510E1,9.555886686E-2,-2.210800797E-1,1.996399164E-1
5.176814361E1,-2.245345116E-1,-5.003780499E-2,7.074736059E-2
5.186820759E1,-1.591719389E-1,-4.942693934E-2,7.807774097E-2
5.196827094E1,-8.464637399E-2,9.826988913E-3,2.065640874E-2
5.206834312E1,-8.220291138E-2,-1.300611645E-1,2.228527963E-1
5.216840964E1,-2.007107735E-1,6.161797326E-3,-8.665123954E-3
5.226847372E1,1.981158182E-2,1.136740819E-1,-2.556471154E-3
5.236854594E1,-2.417071536E-2,1.837910339E-2,-3.371059895E-2
5.246861915E1,3.447234631E-2,-5.920078233E-2,-1.711552739E-1
5.256868257E1,1.175500154E-1,7.702216506E-2,-9.235365689E-2
5.266873838E1,3.202888370E-2,9.901331365E-2,-1.241186559E-1
5.276881142E1,1.309890598E-1,2.957119048E-1,-2.010876834E-1
5.286888777E1,-9.136588871E-2,2.443992496E-1,-1.222860590E-1
5.296894269E1,7.173512876E-2,-1.949454285E-2,2.432160079E-2
5.306900977E1,2.201753855E-1,-1.856498867E-1,2.136898190E-1
5.316909105E1,4.034349620E-1,-7.598631978E-1,1.306121498E-1
5.326914433E1,-7.303993404E-2,-2.772796750E-1,7.196908444E-2
5.336922048E1,-2.190367281E-1,3.274769187E-1,1.037340835E-1
5.346928562E1,-3.082230389E-1,-6.775289774E-2,1.312230229E-1
5.356934591E1,-8.586810529E-2,-1.746543050E-1,1.000688970E-1
5.366941449E1,-2.722504176E-2,1.593564078E-2,1.196165755E-1
5.376947847E1,-2.165932655E-1,4.586803913E-2,4.570188001E-2
5.386955739E1,-1.836065501E-1,2.175211757E-1,-2.149329334E-2
5.396961457E1,-6.754214317E-2,1.246696562E-1,-8.257982135E-2
5.406968152E1,4.607878998E-2,4.586803913E-2,-1.479423940E-1
5.416974860E1,1.499258727E-1,-2.682492696E-2,-1.467206776E-1
5.426982221E1,4.424619302E-2,1.894213706E-1,-1.815399975E-1
5.436989386E1,-2.790432423E-3,3.531332612E-1,-1.790965199E-1
5.446995757E1,1.187717542E-1,2.523404956E-1,-1.473315209E-1
5.457003062E1,6.868080050E-2,1.032893732E-1,8.540812880E-2
5.467007750E1,1.120522320E-1,-2.100844979E-1,1.434403211E-1
5.477015515E1,2.707354724E-3,-5.858992040E-2,1.599336863E-1
5.487022460E1,-1.194656938E-1,-7.202894986E-2,1.471055150E-1
5.497028984E1,-1.726109833E-1,-6.897462159E-2,2.283505797E-1
5.507035229E1,-2.172725461E-2,-1.001287550E-1,2.204093486E-1
5.517042174E1,2.897455916E-2,-6.225510687E-2,2.271288633E-1
5.527051343E1,-2.050552331E-2,6.161797326E-3,2.729437649E-1
5.537057811E1,1.309890598E-1,-1.435001791E-1,2.676505968E-2
5.547064622E1,1.248119865E-2,-7.569414377E-2,-1.632140279E-1
5.557070994E1,2.103331126E-2,2.876381204E-2,-8.563414961E-2
5.567077835E1,8.273070306E-2,-8.498968557E-3,-1.998659521E-1
5.577084187E1,-1.029723361E-1,1.741497368E-1,-1.351142228E-1
5.587090938E1,1.248119865E-2,2.297384739E-1,-1.601596922E-1
5.597097693E1,5.585262924E-2,1.307782978E-1,-1.821508557E-1
5.607104718E1,1.804691404E-1,1.532477699E-2,-6.486472487E-2
5.617111313E1,-9.509949945E-3,-1.868716180E-1,1.281686872E-1
5.627118052E1,-2.783590741E-2,-1.532740295E-1,1.141187921E-1
5.637124520E1,-1.012081560E-2,-3.782049939E-2,6.219524518E-2
5.647131289E1,-6.509868801E-2,5.564188212E-2,2.271288633E-1
5.657138050E1,3.386148065E-2,8.679601550E-2,2.204093486E-1
5.667144512E1,2.225504257E-2,-1.874824762E-1,2.821067274E-1
5.677151786E1,-2.294898592E-2,-3.945657909E-1,1.513815820E-1
5.687158251E1,-5.899003521E-2,-3.230945766E-1,1.638035290E-2
5.697164856E1,-1.316829920E-1,-1.661022007E-1,-2.065854669E-1
5.707172081E1,8.150897175E-2,-1.312828809E-1,-1.601596922E-1
5.717178172E1,7.234599441E-2,-1.679348052E-1,-9.235365689E-2
5.727184950E1,-1.867293008E-2,-1.795412302E-1,-1.387794167E-1
5.737191975E1,-1.989465952E-2,1.491042674E-1,-3.348671496E-1
5.747198890E1,-3.699888662E-2,3.280877769E-1,-3.055456281E-1
5.757205088E1,1.083870381E-1,1.668193489E-1,-2.169701755E-1
5.767211459E1,-5.233893171E-3,1.491042674E-1,4.978551879E-4
5.777219277E1,5.829609185E-2,-9.463096410E-2,1.006797552E-1
5.787226045E1,1.553552505E-2,7.702216506E-2,1.882381178E-2
5.797232763E1,-2.556886375E-1,2.590599954E-1,1.281686872E-1
5.807238911E1,-2.123172134E-1,1.564346403E-1,2.796632648E-1
5.817245403E1,-3.577715531E-2,-7.997019589E-2,2.326266468E-1
5.827252714E1,1.401520371E-1,-1.294502914E-1,2.002507895E-1
5.837260336E1,6.684820354E-2,-2.552885413E-1,1.379425377E-1
5.847265817E1,-5.128629208E-1,-8.424626291E-2,-1.338925064E-1
5.857273035E1,3.948828578E-1,2.998554148E-2,-7.708203048E-2
5.867278233E1,-1.787196249E-1,3.146487474E-1,2.554333024E-2
5.877285918E1,7.295685261E-2,1.924756914E-1,-3.195955157E-1
5.887292876E1,8.747590473E-4,7.367566824E-1,-2.943454124E-2
5.897299201E1,4.926212728E-1,2.297384739E-1,-7.708203048E-2
5.907305942E1,4.083218575E-1,2.496606437E-3,-1.082361639E-1
5.917312704E1,2.666011453E-1,6.602659076E-2,2.943240404E-1
5.927319342E1,4.510824680E-1,-1.960345954E-1,1.324447542E-1
5.937325950E1,3.258550763E-1,-6.103337929E-2,-1.171945035E-2
5.947332859E1,-3.211196512E-2,5.319842324E-2,2.582829893E-1
5.957339317E1,-1.451220363E-1,-7.935933769E-2,3.358628750E-1
5.967346459E1,1.736812107E-2,-4.061722457E-1,2.851610780E-1
5.977352797E1,-5.593570694E-2,-4.147243798E-1,8.113206178E-2
5.987359615E1,4.541367888E-1,-5.100193620E-1,-6.181039661E-2
5.997366123E1,-4.395590723E-1,-3.293357790E-2,1.141187921E-1
6.007372878E1,-1.872717440E-1,-3.171184659E-2,6.280610710E-2
6.017380353E1,-2.843993306E-1,4.708976671E-2,-3.187800199E-2
6.027387111E1,3.735025525E-1,-1.644021645E-2,4.163046833E-3
6.037393083E1,-1.365699172E-1,-1.111243293E-1,-2.332589030E-2
6.047400037E1,-2.172725461E-2,-2.621405944E-2,-1.130100718E-4
6.057406429E1,-3.173860610E-1,-2.833883464E-1,-1.436663419E-1
6.067412467E1,-1.989465952E-2,-5.613320470E-1,1.454775594E-2
6.077419672E1,-2.722504176E-2,-6.871702075E-1,-1.233031508E-2
6.087427184E1,-2.417071536E-2,-4.354937673E-1,7.013648748E-2
6.097433755E1,-1.536741555E-1,-2.748362124E-1,2.210202068E-1
6.107441016E1,-8.586810529E-2,-4.965803027E-1,3.431932628E-1
6.117446758E1,-1.249634773E-1,-7.928498983E-1,3.260890245E-1
6.127453893E1,-3.021143973E-1,-8.447734714E-1,1.458837837E-1
6.137461281E1,5.561512709E-1,-6.425771117E-1,9.396023303E-2
6.147467252E1,-1.982673109E-1,-3.933440745E-1,-4.216100276E-1
6.157474037E1,-9.331381917E-1,2.847163379E-1,8.172246814E-1
6.167480589E1,-1.811630875E-1,-1.261383533E0,-6.341911554E-1
6.177487430E1,4.974398017E-2,-5.967621803E-1,-2.542329431E-1
6.187494048E1,-2.600331046E-2,-9.040274024E-1,-2.352961302E-1
6.197500826E1,-5.336323380E-1,-7.788000703E-1,-4.032840431E-1
6.207507298E1,7.295685261E-2,-4.568740427E-1,-2.798892856E-1
6.217513966E1,-4.041289091E-1,-1.152649522E0,5.181053653E-2
6.227521531E1,-5.464605093E-1,-2.003106475E-1,1.116753295E-1
6.237527966E1,2.262840271E-1,-5.100193620E-1,2.662242353E-1
6.247534389E1,-1.151896343E-1,-3.096555471E-1,2.981938794E-2
6.257540487E1,-8.953329176E-2,-4.006744623E-1,1.409968585E-1
6.267546782E1,-4.090158045E-1,-1.133712769E0,-3.434192836E-1
6.277553913E1,3.521222770E-1,-9.402010590E-2,3.395280838E-1
6.287561288E1,-9.245860577E-1,-4.312177002E-1,-1.271729767E-1
6.297567570E1,-2.923405468E-1,-3.212619722E-1,-3.715190589E-1
6.307574244E1,-3.357120156E-1,-2.271887213E-1,9.049968794E-3
6.317581262E1,1.383194476E-1,-4.428241551E-1,-3.599126339E-1
6.327588734E1,-3.344902694E-1,-9.951788932E-2,-3.067673743E-1
6.337594215E1,-9.625281394E-2,-1.221199036E-1,-4.851400256E-1
6.347601036E1,7.112426311E-2,-2.467364222E-1,-1.626031697E-1
6.357607624E1,3.600635231E-1,-3.609682024E-1,-3.065627255E-2
6.367614186E1,1.358759701E-1,-4.141134918E-1,1.882381178E-2
6.377621401E1,-1.109135821E-1,-5.248126760E-2,4.936707392E-2
6.387628096E1,-2.404170036E-1,-1.850390136E-1,1.214491725E-1
6.397634581E1,-9.625281394E-2,-3.823485076E-1,9.334937483E-2
6.407641182E1,4.363532737E-2,-1.618261486E-1,-2.638021484E-2
6.417647840E1,-1.109135821E-1,1.185610071E-1,-8.319067955E-2
6.427654579E1,-2.330866307E-1,1.662084907E-1,-2.591198683E-1
6.437661560E1,6.135041639E-2,2.413449138E-1,3.592804074E-2
6.447668232E1,4.302445799E-2,2.877706885E-1,-7.891462743E-2
6.457674750E1,8.747590473E-4,3.653505445E-1,-2.548438013E-1
6.467680784E1,-5.233893171E-3,5.608274341E-1,-1.955898851E-1
6.477688749E1,8.150897175E-2,4.667541683E-1,-1.228969246E-1
6.487694978E1,-2.539244667E-2,1.741497368E-1,2.187814005E-2
6.497701646E1,1.493150145E-1,-1.216415968E-2,1.910878122E-1
6.507708251E1,-2.722504176E-2,-2.155822963E-1,3.822886348E-1
6.517715595E1,4.241359606E-2,-2.192474753E-1,2.533960640E-1
6.527721930E1,-1.109135821E-1,1.497151405E-1,2.918805778E-1
6.537728615E1,-1.652805954E-1,-7.141809165E-2,1.892552227E-1
6.547735140E1,-2.165932655E-1,-3.304249644E-1,2.155224085E-1
6.557742541E1,-1.548958719E-1,-1.709891260E-1,1.599336863E-1
6.567748179E1,4.791138321E-2,-2.919404209E-1,-8.929933608E-2
6.577755391E1,-2.539244667E-2,4.770063236E-2,-2.774458230E-1
6.587762369E1,2.702663243E-1,-6.286597252E-2,-1.913138330E-1
6.597769201E1,1.083870381E-1,4.276588261E-1,1.719585620E-3
6.607775716E1,1.725278944E-1,1.045110971E-1,-2.548438013E-1
6.617782060E1,-8.342464268E-2,3.219791353E-1,-2.316309363E-1
6.627788838E1,2.018494308E-1,-2.717818916E-1,1.758161783E-1
6.637795620E1,2.696554661E-1,-4.831412733E-1,5.669745803E-2
6.647802698E1,-4.738359526E-2,-1.033156365E-2,1.393689029E-2
6.657809316E1,-9.075503051E-2,1.955300272E-1,2.204093486E-1
6.667815101E1,-9.578366880E-4,2.448775433E-2,2.680568099E-1
6.677822360E1,-2.966850251E-2,-3.322575390E-1,2.289614528E-1
6.687829838E1,-1.542850137E-1,-1.477762461E-1,1.391642541E-1
6.697836356E1,-2.025433630E-1,-9.463096410E-2,1.027169917E-2
6.707843114E1,-2.111639082E-2,1.288131531E-2,-3.981925175E-2
6.717850346E1,2.788184583E-1,2.022495419E-1,-4.104098305E-2
6.727855911E1,1.951299161E-1,2.718881965E-1,-1.155665442E-1
6.737862565E1,1.322107911E-1,1.136740819E-1,-1.540510505E-1
6.747870017E1,-4.127494246E-2,-2.865752019E-2,-2.108615339E-1
6.757876152E1,2.225504257E-2,-2.241344005E-1,-1.986442059E-1
6.767882794E1,1.957407743E-1,-3.487509191E-1,4.142582789E-2
6.777889339E1,3.752667084E-2,-2.876643836E-1,6.158437952E-2
6.787896201E1,-1.274069399E-1,-2.394060344E-1,1.012906209E-1
6.797903132E1,-9.564195573E-2,7.641129941E-2,7.217372768E-3
6.807909597E1,9.678059816E-2,5.747447908E-2,2.698894441E-1
6.817917738E1,-1.316829920E-1,-3.047686219E-1,3.470630944E-2
6.827923320E1,-6.693128496E-2,2.496606437E-3,2.859765664E-2
6.837929888E1,-1.745119877E-2,2.570948564E-2,-1.888703704E-1
6.847937747E1,7.723291963E-2,2.998554148E-2,-9.174279869E-2
6.857943179E1,1.474824250E-1,2.969336510E-1,-5.203655735E-2
6.867949393E1,1.413737684E-1,3.574092984E-1,-1.589379758E-1
6.877956398E1,1.181608886E-1,3.677940369E-1,-1.699335426E-1
6.887964040E1,1.089979112E-1,3.054857850E-1,-1.186208650E-1
6.897970495E1,-1.012081560E-2,2.859380841E-1,8.968418092E-2
6.907977326E1,1.981842369E-1,-4.025070369E-1,7.563427836E-2
6.917983461E1,-1.310721338E-1,-5.370299518E-2,-2.760194615E-2
6.927990746E1,-3.522053659E-1,1.326109022E-1,1.385534108E-1
6.937997104E1,-5.458496213E-1,-7.569414377E-2,2.081920356E-1
6.948005839E1,2.855379581E-1,-2.155822963E-1,2.362918407E-1
6.958010274E1,-4.738359526E-2,-1.068482772E-1,2.637807727E-1
6.968016279E1,3.325061873E-2,1.093980223E-1,1.699121669E-2
6.978049138E1,-1.378600672E-2,1.747606099E-1,1.149342954E-2
6.988056213E1,9.128281474E-2,-4.331828654E-2,1.153405234E-1
6.998063034E1,9.678059816E-2,1.173392683E-1,-7.708203048E-2
7.008069672E1,1.413737684E-1,2.114125192E-1,-2.493460178E-1
7.018076790E1,2.164417692E-2,7.763303071E-2,-1.564945132E-1
7.028082955E1,2.494969219E-1,-1.575500965E-1,-1.833725870E-1
7.038090306E1,1.499258727E-1,-4.515088350E-2,-6.486472487E-2
7.048096554E1,2.763749659E-1,-3.469183147E-1,-1.149556711E-1
7.058102893E1,-7.181821018E-2,-1.190655753E-1,8.968418092E-2
7.068110091E1,-8.953329176E-2,5.319842324E-2,2.320157737E-1
7.078116850E1,-6.455624010E-3,3.365073353E-2,2.711111307E-1
7.088123098E1,-8.525723964E-2,-1.135677844E-1,2.301831841E-1
7.098129819E1,-3.469714429E-4,-7.874847203E-2,2.161332816E-1
7.108136544E1,-1.701675057E-1,-1.587718129E-1,-8.074722439E-2
7.118143202E1,6.257214397E-2,2.570948564E-2,-4.531703889E-2
7.128150393E1,-2.966850251E-2,-3.965309635E-2,2.615419589E-2
7.138156775E1,-2.294898592E-2,1.289457083E-1,-7.524943352E-2
7.148163349E1,1.064860262E-2,3.207573891E-1,-1.821508557E-1
7.158170838E1,1.322107911E-1,2.230189741E-1,-1.748204678E-1
7.168175929E1,6.983411498E-3,-3.476617485E-2,-7.402770221E-2
7.178183937E1,-6.455624010E-3,-1.862607598E-1,4.936707392E-2
7.188190702E1,1.736812107E-2,-1.349480748E-1,-6.364299357E-2
7.198196993E1,-1.396242529E-1,-2.076410353E-1,1.306121498E-1
7.208204841E1,-1.182439625E-1,-6.286597252E-2,1.238926351E-1
7.218210423E1,2.042244747E-2,-2.082519084E-1,2.222419381E-1
7.228217148E1,-8.159204572E-2,-1.917585433E-1,1.452729255E-1
7.238224009E1,-7.120733708E-2,-3.110098280E-2,5.547572672E-2
7.248230434E1,1.675725542E-2,9.351552278E-2,5.730832368E-2
7.258237815E1,2.598816156E-1,1.051219702E-1,8.479725569E-2
7.268243220E1,2.116232812E-1,-4.392915219E-2,-8.563414961E-2
7.278251682E1,5.218743905E-2,1.717062891E-1,-1.338925064E-1
7.288257457E1,-7.677354384E-3,5.319842324E-2,-1.766530573E-1
7.298263995E1,-3.944234923E-2,-7.277237717E-3,-2.114723772E-1
7.308270873E1,1.761930883E-1,-1.215090379E-1,-1.375577003E-1
7.318278178E1,9.494800866E-2,-1.581609547E-1,-9.174279869E-2
7.328284769E1,-1.280178130E-1,-2.009215206E-1,6.219524518E-2
7.338290914E1,4.302445799E-2,5.319842324E-2,1.287795603E-1
7.348297923E1,2.958542667E-2,-1.245633587E-1,2.167441547E-1
7.358304294E1,8.089810610E-2,-2.778905332E-1,2.497308850E-1
7.368311029E1,-2.929514050E-1,-2.113062292E-1,1.092318743E-1
7.378317631E1,-1.927695274E-1,1.894213706E-1,6.708216667E-2
7.388325092E1,1.920071617E-2,1.350543648E-1,-6.832527462E-3
7.398331977E1,1.981158182E-2,1.552129239E-1,-3.371059895E-2
7.408337862E1,-5.410310999E-2,1.704845428E-1,-1.552727818E-1
7.418344564E1,-7.120733708E-2,2.260732949E-1,-2.126941234E-1
7.428351365E1,-4.677273333E-2,2.786076963E-1,-1.473315209E-1
7.438358596E1,9.555886686E-2,6.724832207E-2,-1.907029748E-1
7.448365235E1,-7.066489197E-3,9.826988913E-3,5.486486107E-2
7.458372836E1,1.675725542E-2,1.179501340E-1,2.065640874E-2
7.468377731E1,-1.377916634E-1,1.227045059E-2,1.752053201E-1
7.478385782E1,-1.555067450E-1,-1.410567313E-1,3.028761744E-1
7.488391810E1,1.041109860E-1,-4.373263419E-1,3.309759498E-1
7.498398665E1,-6.876387447E-2,-3.701311946E-1,1.788705140E-1
7.508405121E1,-1.652805954E-1,-1.508305669E-1,-1.538464148E-2
7.518411632E1,-1.317514107E-2,-9.035491198E-2,-1.766530573E-1
7.528418347E1,1.871886551E-1,8.679601550E-2,-1.002949029E-1
7.538425368E1,8.028724045E-2,-1.168585150E-3,-1.277838498E-1
7.548432290E1,6.983411498E-3,2.443992496E-1,-2.071963400E-1
7.558438554E1,1.492465939E-2,3.482463360E-1,-2.731697559E-1
7.568446126E1,4.791138321E-2,2.822728753E-1,-2.163593173E-1
7.578454204E1,2.177319229E-1,5.550932605E-3,-1.966069825E-2
7.588459058E1,-5.165965110E-2,-2.888861001E-1,3.043025173E-2
7.598465466E1,4.974398017E-2,-4.087482393E-2,-6.852991134E-2
7.608472721E1,-1.158005074E-1,1.715737209E-2,1.800922453E-1
7.618478989E1,-1.964347064E-1,2.496606437E-3,2.582829893E-1
7.628485707E1,3.649504483E-1,-2.852209210E-1,1.611554176E-1
7.638492435E1,-9.686367959E-2,-1.160112545E-1,1.666532010E-1
7.648500471E1,-2.086520195E-1,7.702216506E-2,1.367208064E-1
7.658505632E1,-3.558705449E-1,-5.187039822E-2,-1.986442059E-1
7.668511524E1,1.737496257E-1,2.694447339E-1,1.104535982E-1
7.678519415E1,-1.133570373E-1,2.468426973E-1,7.563427836E-2
7.688526566E1,-3.253272772E-1,3.897852004E-1,-1.332816333E-1
7.698530615E1,-1.426785737E-1,3.189248145E-1,-1.577162445E-1
7.708537367E1,1.804691404E-1,2.841055095E-1,-1.784856617E-1
7.718544172E1,1.487041414E-1,-6.164424494E-2,8.968418092E-2
7.728550993E1,3.857198358E-1,-1.801521033E-1,4.325842112E-2
7.738557861E1,1.858985052E-2,2.204429358E-2,1.862009019E-1
7.748564589E1,-4.249667376E-2,1.863670498E-1,2.393461615E-1
7.758571261E1,1.797898673E-2,-1.789303720E-1,3.297542036E-1
7.768578466E1,-6.265522540E-2,-2.339082509E-1,1.904769391E-1
7.778585340E1,-6.143349409E-2,-1.929802746E-1,1.226709038E-1
7.788591072E1,-7.548339665E-2,-7.325068861E-2,-3.615406156E-2
7.798597760E1,1.041109860E-1,1.613215655E-1,3.837150335E-2
7.808604791E1,1.438172311E-1,5.930707604E-2,-1.082361639E-1
7.818611369E1,1.279347241E-1,1.014567763E-1,-1.650466323E-1
7.828618057E1,1.939081699E-1,2.437883765E-1,-2.181919068E-1
7.838624802E1,1.553552505E-2,1.674302220E-1,-2.633959353E-1
7.848631777E1,6.983411498E-3,2.828837633E-1,-1.599550620E-2
7.858638025E1,-1.256427635E-2,-2.687275708E-1,3.165198490E-2
7.868644240E1,-8.403550833E-2,-3.041577339E-1,2.857719064E-1
7.878651685E1,-1.195341069E-2,-2.394060344E-1,1.269469559E-1
7.888658536E1,-1.524524242E-1,-1.233416349E-1,1.672640741E-1
7.898664931E1,-1.806206256E-2,-2.198583335E-1,2.143006921E-1
7.908671826E1,-6.937474012E-2,-2.522342205E-1,1.825357080E-1
7.918678851E1,-1.408459842E-1,-8.058106899E-2,1.043449491E-1
7.928685529E1,1.242695376E-1,-1.294502914E-1,-6.975165009E-2
7.938691840E1,1.297673136E-1,9.840244800E-2,-1.064035669E-1
7.948699489E1,1.132739633E-1,3.548333049E-2,-1.833725870E-1
7.958705740E1,1.994059533E-1,2.523404956E-1,-1.992550790E-1
7.968711891E1,-7.426166534E-2,2.755533755E-1,-2.271502465E-2
7.978719024E1,-1.634479910E-1,1.069545671E-1,-4.287357628E-2
7.988725368E1,-9.808541089E-2,-2.913295925E-1,5.791918933E-2
7.998732546E1,3.202888370E-2,-3.175967634E-1,-5.509088188E-2
8.008739274E1,-1.591719389E-1,-7.202894986E-2,4.264755547E-2
8.018745409E1,-1.274069399E-1,-4.759434611E-2,2.876045108E-1
8.028752171E1,1.975733638E-1,-5.228475332E-1,3.419715166E-1
8.038760220E1,-3.150109947E-2,-7.733022571E-1,1.006797552E-1
8.048765591E1,2.707354724E-3,-2.510124743E-1,-1.503858715E-1
8.058773003E1,-1.390133798E-1,-1.398349851E-1,-2.896631360E-1
8.068778884E1,3.148595095E-1,-1.019613519E-1,-8.991020173E-2
8.078785695E1,6.990253180E-2,7.274610549E-2,-1.870377809E-1
8.088792493E1,-2.966850251E-2,3.073183596E-1,-2.957717776E-1
8.098799151E1,3.929085098E-3,5.577731133E-1,-3.110434413E-1
8.108806270E1,1.083870381E-1,4.539260268E-1,-2.249114215E-1
8.118813304E1,7.295685261E-2,2.981553972E-1,-3.778201528E-3
8.128819276E1,3.594526649E-1,1.356652230E-1,3.714976832E-2
8.138825931E1,-2.459148020E-1,-6.666372530E-3,2.118572295E-1
8.148833312E1,-2.074302882E-1,1.845344603E-1,4.073341191E-1
8.158839404E1,-2.605755627E-1,-1.996997893E-1,4.568141699E-1
8.168845599E1,-5.410310999E-2,-2.424603552E-1,2.326266468E-1
8.178853047E1,-1.568701933E-3,-3.212619722E-1,2.191876024E-1
8.188859609E1,-1.017506048E-1,-2.864426672E-1,-4.898223281E-2
8.198867414E1,3.490679562E-1,-1.624370068E-1,-2.882367745E-2
8.208872948E1,-8.220291138E-2,6.236140057E-2,-3.562474251E-1
8.218880860E1,-7.426166534E-2,1.906431019E-1,-1.473315209E-1
8.228886341E1,-3.272282705E-2,2.810511589E-1,-2.414047867E-1
8.238893949E1,-7.426166534E-2,2.657795548E-1,-2.206353545E-1
8.248900324E1,-4.012163263E-3,3.365073353E-2,-1.650466323E-1
8.258906836E1,7.234599441E-2,7.641129941E-2,2.554333024E-2
8.268912934E1,-5.104878545E-2,1.588781178E-1,-1.094578877E-1
8.278919928E1,-1.884934753E-1,3.567984700E-1,1.599336863E-1
8.288926757E1,-9.808541089E-2,1.472716630E-1,3.193694949E-1
8.298933611E1,-3.150109947E-2,-4.270742089E-2,4.195514321E-1
8.308940059E1,6.379388273E-2,-1.239525005E-1,2.503417432E-1
8.318946804E1,8.395243436E-2,-1.343372017E-1,9.823630005E-2
8.328954499E1,-5.837916955E-2,-5.920078233E-2,-3.981925175E-2
8.338960750E1,4.376434088E-1,1.827018559E-1,1.104535982E-1
8.348966872E1,7.906551659E-2,4.342457652E-2,-1.723770201E-1
8.358974264E1,5.585262924E-2,1.118414849E-1,-1.986442059E-1
8.368980340E1,-9.625281394E-2,1.466607898E-1,-2.737806439E-1
8.378987165E1,-1.469546407E-1,-3.110098280E-2,-1.968116164E-1
8.388993786E1,1.175500154E-1,-7.202894986E-2,-1.351142228E-1
8.399000888E1,2.757641375E-1,-2.937730551E-1,-6.119953468E-2
8.409007422E1,-9.075503051E-2,-2.406277657E-1,1.108720433E-3
8.419014301E1,-3.149425685E-1,1.564346403E-1,1.208383068E-1
8.429187829E1,-1.872717440E-1,-3.505834937E-1,2.692785561E-1
8.439194083E1,-3.760975227E-2,-2.204692066E-1,9.701456130E-2
8.449201992E1,-3.394456208E-2,1.521585882E-1,2.662242353E-1
8.459207500E1,-2.288105786E-1,4.220284522E-2,1.882381178E-2
8.469214008E1,-1.542850137E-1,4.075002670E-1,2.588938475E-1
8.479220986E1,1.444280893E-1,1.087871566E-1,-1.925355643E-1
8.489227804E1,8.273070306E-2,4.801932275E-1,-9.296452999E-2
8.499234612E1,1.125946827E-2,6.860548258E-1,-8.991020173E-2
8.509241090E1,-1.548958719E-1,3.684048653E-1,9.457110614E-2
8.519247842E1,4.974398017E-2,-4.759434611E-2,-1.294117980E-2
8.529254587E1,7.967637479E-2,-1.673239321E-1,8.113206178E-2
8.539261098E1,1.309206430E-2,-4.409915507E-1,9.762542695E-2
8.549268213E1,-6.204435974E-2,-3.469183147E-1,1.483272463E-1
8.559274762E1,8.395243436E-2,1.686519533E-1,1.287795603E-1
8.569280443E1,9.800233692E-2,-3.658551276E-1,3.187586367E-1
8.579290254E1,-2.783590741E-2,-3.438639939E-1,1.409968585E-1
8.589295199E1,-1.684033312E-2,-2.461255491E-1,3.348457813E-2
8.599302024E1,-1.164113730E-1,-1.929802746E-1,-2.493460178E-1
8.609308952E1,1.267129928E-1,1.967517585E-1,-8.991020173E-2
8.619315180E1,-6.876387447E-2,3.629071116E-1,-1.534401923E-1
8.629321878E1,-1.005288661E-1,3.574092984E-1,-1.509967148E-1
8.639328342E1,5.707436055E-2,2.297384739E-1,-1.644357592E-1
8.649335630E1,6.073955074E-2,1.625433117E-1,5.608659238E-2
8.659341859E1,2.103331126E-2,-7.263981551E-2,5.730832368E-2
8.669348223E1,1.596997231E-1,-2.565102577E-1,3.776063398E-2
8.679355195E1,-7.181821018E-2,-5.711058378E-1,1.019014865E-1
8.689361850E1,-2.257562429E-1,-4.183895588E-1,8.174293488E-2
8.699369235E1,-1.090809852E-1,-2.949947715E-1,1.324447542E-1
8.709375393E1,-1.500773709E-2,-3.481400311E-1,1.116753295E-1
8.719381994E1,-8.770070225E-2,-2.937730551E-1,5.730832368E-2
8.729388816E1,-2.037650943E-1,-2.827774584E-1,-2.556471154E-3
8.739395440E1,-4.005321115E-2,-2.010540850E-2,-2.059745938E-1
8.749402809E1,3.508321196E-2,4.525717348E-2,-2.279657423E-1
8.759409053E1,5.761681125E-3,3.201465309E-1,-2.401830405E-1
8.769415139E1,-4.249667376E-2,5.315059423E-1,-2.016985416E-1
8.779422337E1,2.556055486E-1,4.337674677E-1,-2.267440259E-1
8.789430842E1,2.262840271E-1,9.779158980E-2,-1.204534620E-1
8.799436270E1,7.478944957E-2,6.052880362E-2,5.853005126E-2
8.809442571E1,-3.686986864E-1,2.431775033E-1,2.943240404E-1
8.819449456E1,1.071653143E-1,-9.402010590E-2,1.232817695E-1
8.829455761E1,3.563983440E-1,4.525717348E-2,2.595047355E-1
8.839462856E1,5.157657713E-2,-3.707420528E-1,2.906588316E-1
8.849469760E1,-1.341264695E-1,-4.128917456E-1,2.338483781E-1
8.859477388E1,-3.155534267E-1,-3.188185096E-1,2.615419589E-2
8.869481960E1,7.356772572E-2,-1.471653730E-1,6.280610710E-2
8.879489279E1,1.248119865E-2,1.020676419E-1,-1.283947080E-1
8.889497160E1,-2.233812027E-2,1.820909828E-1,-1.662683636E-1
8.899503975E1,7.417859137E-2,4.850801528E-1,-2.047528625E-1
8.909510500E1,-8.525723964E-2,3.781787455E-1,-1.461098045E-1
8.919516304E1,7.594276685E-3,7.763303071E-2,-9.601885080E-2
8.929523026E1,9.433714300E-2,-9.585270286E-2,4.142582789E-2
8.939530694E1,-1.073168125E-2,-6.103337929E-2,1.770379245E-1
8.949537202E1,-1.078592539E-1,-5.577199627E-4,2.295723259E-1
8.959543587E1,-7.792685926E-2,-2.412386388E-1,3.486910462E-1
8.969549979E1,4.791138321E-2,-5.497255921E-1,2.827175856E-1
8.979556954E1,-1.707783788E-1,-4.116700292E-1,1.098427325E-1
8.989563965E1,-1.872717440E-1,-1.827281155E-2,-1.125122160E-1
8.999570590E1,-5.043792352E-2,4.586803913E-2,-1.430554837E-1
9.009576899E1,1.096087694E-1,1.277239770E-1,-1.552727818E-1
9.019584084E1,1.285455972E-1,3.158704937E-1,-1.235077903E-1
9.029590819E1,1.603105962E-1,2.425666451E-1,-2.316309363E-1
9.039597404E1,2.580490410E-1,1.515477300E-1,-2.175810337E-1
9.049603925E1,3.515114188E-1,2.265515924E-2,-1.601596922E-1
9.059610297E1,-5.410310999E-2,-1.728217155E-1,5.181053653E-2
9.069616045E1,5.622599721E-1,-1.221199036E-1,-4.539858997E-1
9.079623450E1,-2.459148020E-1,-6.042251736E-2,2.814958692E-1
9.089630249E1,-2.477473915E-1,2.169103026E-1,2.240745425E-1
9.099639107E1,8.639589697E-2,-3.896788955E-1,1.550467610E-1
9.109644095E1,-2.324757725E-1,-2.804665640E-2,2.179658860E-1
9.119650870E1,-5.165965110E-2,5.625274777E-2,1.515862066E-2
9.129658535E1,1.114413664E-1,-1.196764484E-1,6.606507581E-3
9.139664607E1,-5.899003521E-2,1.057328358E-1,-1.660637185E-2
9.149670709E1,-1.989465952E-2,1.130632162E-1,-1.931464225E-1
9.159733600E1,-4.127494246E-2,3.268660605E-1,-1.320599020E-1
9.169740792E1,-8.586810529E-2,2.529513538E-1,-2.016985416E-1
9.179747609E1,7.594276685E-3,-7.752674073E-2,-1.259512454E-1
9.189753937E1,4.791138321E-2,-1.257850975E-1,1.104535982E-1
9.199761209E1,9.861319512E-2,-2.125279605E-1,1.690966636E-1
9.209767720E1,-1.164113730E-1,2.815294638E-2,1.440511942E-1
9.219773929E1,-1.402351111E-1,-1.025722101E-1,2.796632648E-1
9.229781017E1,-4.005321115E-2,-3.499726355E-1,2.130789608E-1
9.239787891E1,-1.928379387E-2,-2.455146760E-1,1.709292531E-1
9.249793989E1,-5.899003521E-2,-9.340924025E-2,2.941316226E-3
9.259800691E1,5.463090166E-2,9.290466458E-2,-5.936693773E-2
9.269806529E1,1.511476189E-1,-5.003780499E-2,-5.325828493E-2
9.279814114E1,1.658083797E-1,3.718336811E-3,-2.328526676E-1
9.289821422E1,9.678059816E-2,2.291276157E-1,-2.853870988E-1
9.299827714E1,1.816908717E-1,2.346253991E-1,-2.084180564E-1
9.309834658E1,4.730051756E-2,-1.154003814E-1,-3.554319218E-2
9.319840967E1,2.922574878E-1,-1.770977825E-1,-1.171945035E-2
9.329847912E1,-2.007107735E-1,1.393304169E-1,8.357553184E-2
9.339855696E1,-1.616154015E-1,-1.705108024E-2,1.800922453E-1
9.349861648E1,-1.237417534E-1,-7.997019589E-2,2.711111307E-1
9.359868826E1,-8.770070225E-2,-3.377553523E-1,1.477163881E-1
9.369873998E1,3.630494326E-2,-8.791145682E-2,1.251143664E-1
9.379881513E1,-1.634479910E-1,1.227045059E-2,-2.882367745E-2
9.389888011E1,1.108305082E-1,4.953322932E-2,-7.097338140E-2
9.399895449E1,6.983411498E-3,9.229379892E-2,-9.662972391E-2
9.409901581E1,-9.930714220E-2,1.546020508E-1,-1.833725870E-1
9.419908099E1,1.370292995E-2,2.114125192E-1,-1.907029748E-1
9.429914844E1,2.897455916E-2,1.533803195E-1,-2.267440259E-1
9.439922465E1,1.230478063E-1,-1.705108024E-2,-4.959309474E-2
9.449928250E1,6.440474838E-2,-9.463096410E-2,-4.999931902E-3
9.459935258E1,-4.432927072E-2,-1.037939489E-1,8.907331526E-2
9.469940796E1,-1.628371328E-1,1.448282003E-1,2.094137669E-1
9.479948614E1,-6.021176651E-2,5.564188212E-2,3.181478083E-1
9.489955086E1,-1.073168125E-2,-1.551066339E-1,2.228527963E-1
9.499961881E1,-2.417071536E-2,-1.154003814E-1,2.350701094E-1
9.509968535E1,-2.478158101E-2,-5.248126760E-2,-1.945605734E-3
9.519975196E1,1.028892547E-1,1.967517585E-1,8.439103141E-3
9.529983125E1,2.207862586E-1,8.557427675E-2,-4.592790082E-2
9.539988656E1,5.707436055E-2,3.303986788E-2,-1.271729767E-1
9.549995394E1,1.003773790E-2,2.712773085E-1,-2.346852571E-1
9.560003139E1,5.402003601E-2,1.417738795E-1,-1.668792218E-1
9.570008857E1,1.877995282E-1,-6.103337929E-2,-8.196895570E-2
9.580015239E1,2.604925036E-1,-3.444748521E-1,-6.914078444E-2
9.590023754E1,-1.768870205E-1,-1.190655753E-1,1.611554176E-1
9.600028989E1,-3.509836197E-1,3.975938633E-2,3.102065325E-1
9.610036207E1,-2.746254504E-1,-1.033156365E-2,2.369027138E-1
9.620042862E1,1.065544412E-1,-1.544957608E-1,2.094137669E-1
9.630049593E1,-1.170222312E-1,-9.707443416E-2,2.149115652E-1
9.640055831E1,-1.878826022E-1,-1.141786575E-1,-1.538464148E-2
9.650062816E1,6.440474838E-2,-7.325068861E-2,4.142582789E-2
9.660070151E1,7.417859137E-2,-1.202873066E-1,-1.045709699E-1
9.670077169E1,2.469850332E-2,1.776823774E-2,-1.216751933E-1
9.680082404E1,-2.783590741E-2,2.767751217E-1,-2.597307563E-1
9.690090410E1,-7.059647143E-2,2.114125192E-1,-2.279657423E-1
9.700096401E1,1.383194476E-1,9.290466458E-2,-2.334635258E-1
9.710103099E1,2.458317280E-1,-4.544306099E-1,7.868860662E-2
9.720109747E1,-6.937474012E-2,-2.528450489E-1,5.181053653E-2
9.730116949E1,-3.076121807E-1,1.715737209E-2,1.904769391E-1
9.740123977E1,-1.677240431E-1,1.301674545E-1,1.684857905E-1
9.750129715E1,1.865777820E-1,-1.172329783E-1,2.228527963E-1
9.760136876E1,1.719170213E-1,-1.795412302E-1,1.245035008E-1
9.770142501E1,-4.310753942E-2,-4.222911317E-3,-5.203655735E-2
9.780149866E1,1.193826124E-1,9.656985104E-2,-1.599550620E-2
9.790156480E1,1.511476189E-1,1.227045059E-2,-9.662972391E-2
9.800164455E1,1.315999180E-1,1.197827309E-1,-8.380155265E-2
9.810170377E1,6.990253180E-2,3.836764991E-1,-8.868847042E-2
9.820176705E1,2.592023462E-2,4.258262217E-1,-1.668792218E-1
9.830183790E1,-1.073168125E-2,8.557427675E-2,-1.088470221E-1
9.840190834E1,2.702663243E-1,-1.288394183E-1,7.624514401E-2
9.850196822E1,-7.066489197E-3,-2.516233325E-1,1.043449491E-1
9.860204424E1,-1.994890422E-1,-8.485712111E-2,1.318338811E-1
9.870209279E1,-1.848282814E-1,-1.277502440E-2,2.949348986E-1
9.880219737E1,-4.616186395E-2,-3.017143011E-1,2.020833939E-1
9.890225325E1,-6.998561323E-2,-4.519871175E-1,1.703183949E-1
9.900232093E1,-1.756653041E-1,-2.650623918E-1,-2.393675409E-2
9.910238878E1,-1.732218266E-1,-1.099025980E-1,-2.071963400E-1
9.920245622E1,2.091798037E-1,1.898996718E-2,-1.687118262E-1
9.930252657E1,1.169391572E-1,3.005988598E-1,-1.119013503E-1
9.940259682E1,1.064860262E-2,4.337674677E-1,-2.004768103E-1
9.950266891E1,1.492465939E-2,5.192885995E-1,-1.980333626E-1
9.960272409E1,7.662204653E-2,1.723171324E-1,-8.746674657E-2
9.970278957E1,3.044748008E-1,1.313891709E-1,-4.592790082E-2
9.980285679E1,2.055146247E-1,-2.369625717E-1,1.257252246E-1
9.990292933E1,-1.616154015E-1,4.586803913E-2,8.540812880E-2
1.000029915E2,-6.448782235E-2,5.314527516E-5,3.028761744E-1
1.001030603E2,-7.677354384E-3,-7.263981551E-2,2.680568099E-1
1.002031264E2,6.868080050E-2,-2.394060344E-1,2.424004972E-1
1.003031979E2,-1.493980885E-1,-2.241344005E-1,6.891476363E-2
1.004032662E2,3.569407761E-2,-1.154003814E-1,-2.943454124E-2
1.005033339E2,2.250622958E-1,-7.019636035E-2,-5.570174754E-2
1.006033961E2,6.318301708E-2,2.082256228E-2,-5.448001996E-2
1.007034586E2,-3.577715531E-2,-4.698347673E-2,-2.139158547E-1
1.008035278E2,-1.439687237E-2,1.698736846E-1,-1.845943183E-1
1.009036058E2,-7.853771746E-2,1.289457083E-1,-2.597307563E-1
1.010036627E2,3.202888370E-2,4.098111764E-2,-8.135808259E-2
1.011037307E2,-9.509949945E-3,-4.576174915E-2,-3.798665479E-2
1.012038000E2,6.983411498E-3,-7.325068861E-2,1.483272463E-1
1.013038665E2,-6.387695670E-2,3.519115150E-1,1.611554176E-1
1.014039384E2,-2.783590741E-2,-8.546798676E-2,2.882153988E-1
1.015039990E2,5.524176359E-2,-1.856498867E-1,2.277397364E-1
1.016040657E2,-1.414568424E-1,-1.184547096E-1,1.690966636E-1
1.017041306E2,-6.509868801E-2,3.120727278E-2,1.898660809E-1
1.018042008E2,7.051339746E-2,1.283348501E-1,1.576948725E-2
1.019042680E2,6.379388273E-2,5.197669193E-2,-1.381685436E-1
1.020043339E2,-4.555099830E-2,1.295565814E-1,-1.790965199E-1
1.021044020E2,-1.867293008E-2,1.521585882E-1,-2.346852571E-1
1.022044760E2,-5.776830390E-2,3.059640713E-2,-1.729878634E-1
1.023045471E2,2.598816156E-1,-4.576174915E-2,-1.436663419E-1
1.024046131E2,8.822849393E-2,-5.081867576E-1,5.608659238E-2
1.025046708E2,-1.500089616E-1,-7.630500942E-2,-2.271502465E-2
1.026047502E2,-6.082263216E-2,1.307782978E-1,1.409968585E-1
1.027048021E2,3.874840587E-2,-1.033156365E-2,1.782596409E-1
1.028048703E2,1.285455972E-1,-2.186366171E-1,1.220600381E-1
1.029049377E2,-4.371840134E-2,-8.974404633E-2,7.868860662E-2
1.030050076E2,-8.342464268E-2,8.618514240E-2,-4.287357628E-2
1.031050792E2,1.505367458E-1,8.618514240E-2,-1.049771905E-2
1.032051528E2,-9.509949945E-3,8.618514240E-2,-1.345033497E-1
1.033052121E2,-7.487253100E-2,1.784258038E-1,-2.285766155E-1
1.034052831E2,1.120522320E-1,3.293095231E-1,-1.656574905E-1
1.035053450E2,-8.288219571E-3,1.161175370E-1,-1.925355643E-1
1.036054184E2,1.425954849E-1,-6.775289774E-2,-1.314490288E-1
1.037054754E2,-1.073168125E-2,-2.021432519E-1,1.617662758E-1
1.038055435E2,1.003773790E-2,-9.109833278E-3,1.568793654E-1
1.039056095E2,-7.853771746E-2,-1.582935080E-2,2.118572295E-1
1.040056884E2,-4.494013637E-2,-2.320756465E-1,2.814958692E-1
1.041057422E2,6.983411498E-3,-2.528450489E-1,3.010435402E-1
1.042058120E2,-2.330866307E-1,-3.273706436E-1,4.936707392E-2
1.043058815E2,-1.677240431E-1,-6.714203209E-2,-7.524943352E-2
1.044059513E2,-4.371840134E-2,1.417738795E-1,-1.729878634E-1
1.045060127E2,1.798582822E-1,2.053038627E-1,-9.724058211E-2
1.046060863E2,1.548127979E-1,4.661433399E-1,-2.084180564E-1
1.047061464E2,2.256731689E-1,4.795823693E-1,-1.326707602E-1
1.048062182E2,2.897455916E-2,1.497151405E-1,1.760208048E-2
1.049062849E2,-3.401297610E-3,1.454390734E-1,1.122861952E-1
1.050063485E2,-1.304612756E-1,-2.546776533E-1,2.149115652E-1
1.051064168E2,-2.764580548E-1,-1.386132687E-1,1.605445594E-1
1.052064895E2,-1.750544310E-1,-7.263981551E-2,2.784415185E-1
1.053065611E2,1.389302909E-1,-5.045215487E-1,2.057485878E-1
1.054066291E2,-5.837916955E-2,-4.623718560E-1,9.090591222E-2
1.055066868E2,-2.790432423E-3,-2.308539152E-1,-2.699108049E-2
1.056067585E2,2.530936897E-2,-7.691587508E-2,-9.662972391E-2
1.057068157E2,1.578671336E-1,-7.888102904E-3,-1.271729767E-1
1.058068843E2,5.768522620E-2,1.100088879E-1,-1.564945132E-1
1.059069536E2,1.071653143E-1,8.801773936E-2,-2.676720023E-1
1.060070242E2,1.639757901E-1,2.077473253E-1,-2.340743989E-1
1.061071694E2,8.822849393E-2,3.975938633E-2,-2.120832503E-1
1.062072395E2,2.323926836E-1,-9.890703112E-2,-1.485532671E-1
1.063073109E2,-4.982705787E-2,-1.832064241E-1,8.662985265E-2
1.064073786E2,-6.448782235E-2,7.152437419E-2,7.991033792E-2
1.065074457E2,4.539950285E-3,1.032893732E-1,1.904769391E-1
1.066075152E2,-1.353481859E-1,-1.208981723E-1,1.898660809E-1
1.067075746E2,-6.448782235E-2,-1.996997893E-1,8.724072576E-2
1.068076396E2,3.215790093E-1,-2.192474753E-1,3.028761744E-1
1.069077054E2,1.175500154E-1,5.258755386E-2,1.576948725E-2
1.070077742E2,8.747590473E-4,2.505078912E-1,2.941316226E-3
1.071078445E2,-7.120733708E-2,2.053038627E-1,-5.631261319E-2
1.072079122E2,-2.417071536E-2,3.794004619E-1,-1.467206776E-1
1.073079809E2,1.670301110E-1,2.480644435E-1,-1.296164393E-1
1.074080451E2,-7.059647143E-2,1.167284101E-1,5.119966716E-2
1.075081137E2,1.089979112E-1,-3.383662105E-1,1.760208048E-2
1.076081806E2,6.196128577E-2,-5.588885546E-1,2.240745425E-1
1.077082427E2,-4.623028450E-3,-2.986599803E-1,6.647130102E-2
1.078083139E2,8.517416567E-2,-1.526631564E-1,2.234636694E-1
1.079083779E2,6.012868881E-2,-3.652442694E-1,3.226284683E-2
1.080084440E2,1.003773790E-2,-1.208981723E-1,1.031232178E-1
1.081085149E2,-2.966850251E-2,-1.080700010E-1,-9.113193303E-2
1.082085795E2,-1.115244478E-1,2.126342505E-1,-9.785144776E-2
1.083086464E2,1.609214544E-1,1.228370592E-1,-2.206353545E-1
1.084087196E2,-2.179567004E-3,2.633360624E-1,-1.638248861E-1
1.085087821E2,-3.150109947E-2,4.129980505E-1,-2.517894804E-1
1.086088481E2,-2.661417797E-2,3.671831787E-1,-1.760421991E-1
1.087089120E2,-2.159824073E-1,1.087871566E-1,9.945802391E-2
1.088089841E2,2.638937731E-4,-2.345191091E-1,5.364312977E-2
1.089090513E2,-4.371840134E-2,5.991793796E-2,1.245035008E-1
1.090091161E2,-1.072483882E-1,1.093980223E-1,2.332375199E-1
1.091091864E2,9.739146382E-2,-3.194293678E-1,2.540069222E-1
1.092092516E2,-1.035832018E-1,-2.229126692E-1,1.843682975E-1
1.093093232E2,-9.578366880E-4,4.525717348E-2,1.293904334E-1
1.094094026E2,8.205141872E-3,-3.965309635E-2,1.104535982E-1
1.095094511E2,6.929166615E-2,5.258755386E-2,1.043449491E-1
1.096095192E2,5.157657713E-2,7.457870245E-2,-1.387794167E-1
1.097095792E2,2.958542667E-2,5.319842324E-2,-1.650466323E-1
1.098096577E2,-1.212982833E-1,1.222261935E-1,-1.638248861E-1
1.099097206E2,3.752667084E-2,-1.331154853E-1,-1.784856617E-1
1.100097874E2,2.146776021E-1,-3.096555471E-1,-1.021274999E-1
1.101098588E2,5.761681125E-3,-2.986599803E-1,-1.204534620E-1
1.102099214E2,-1.182439625E-1,9.826988913E-3,-8.807760477E-2
1.103099880E2,-1.524524242E-1,1.043785457E-2,1.348882169E-1
1.104100544E2,6.135041639E-2,-1.013504863E-1,1.758161783E-1
1.105101221E2,5.279830471E-2,-1.428893209E-1,7.868860662E-2
1.106101959E2,-1.640588492E-1,1.411630064E-1,-1.355204545E-2
1.107102639E2,1.493150145E-1,1.698736846E-1,-1.454989314E-1
1.108103325E2,6.318301708E-2,3.958938420E-1,-1.945605734E-3
1.109103953E2,9.983493388E-2,4.478173852E-1,-1.416291017E-2
1.110104586E2,2.897455916E-2,4.319348633E-1,-7.219510525E-2
1.111105270E2,3.630494326E-2,2.779968381E-1,-5.264742300E-2
1.112105932E2,-3.516628966E-2,5.503101647E-2,1.012906209E-1
1.113106606E2,2.592023462E-2,-1.367806643E-1,1.238926351E-1
1.114107287E2,9.311541170E-2,-2.064193189E-1,2.656133771E-1
1.115107939E2,-1.805522144E-1,-2.827774584E-1,1.916986704E-1
1.116108622E2,-3.076121807E-1,-4.806978106E-1,2.601155639E-1
1.117109301E2,-4.616186395E-2,-6.670117378E-1,1.183948442E-1
1.118109975E2,-1.096918508E-1,-7.036636472E-1,4.875621200E-2
1.119110627E2,-1.390133798E-1,-4.373263419E-1,-5.020396039E-2
1.120111328E2,-1.432894468E-1,-1.532740295E-1,-2.462916970E-1
1.121112017E2,-5.227051675E-2,-3.965309635E-2,-2.560655475E-1
1.122112654E2,-4.432927072E-2,3.177030683E-1,-2.475134283E-1
1.123113322E2,7.478944957E-2,4.166632295E-1,-3.171520829E-1
1.124113989E2,1.957407743E-1,6.469594240E-1,-2.126941234E-1
1.125114733E2,9.678059816E-2,4.252153635E-1,-2.279657423E-1
1.126115327E2,5.096571147E-2,2.847163379E-1,9.273850918E-2
1.127115971E2,-3.089023381E-2,1.320000440E-1,9.273850918E-2
1.128116678E2,-3.699888662E-2,3.107471392E-3,2.491200119E-1
1.129117423E2,-5.227051675E-2,1.216153279E-1,2.931022942E-1
1.130118005E2,1.896321326E-1,-2.968273759E-1,3.016544282E-1
1.131118677E2,4.302445799E-2,-3.414205313E-1,1.910878122E-1
1.132119385E2,1.736812107E-2,-9.463096410E-2,1.031232178E-1
1.133120045E2,4.852224886E-2,1.410304569E-2,7.257995754E-2
1.134121852E2,9.616973996E-2,1.130632162E-1,-7.443393115E-3
1.135122467E2,4.485705495E-2,2.016386688E-1,-6.608645618E-2
1.136123164E2,-1.170222312E-1,9.779158980E-2,-1.668792218E-1
1.137123738E2,8.761762083E-2,1.350543648E-1,-2.163593173E-1
1.138124492E2,-1.568701933E-3,1.600998342E-1,-1.619922966E-1
1.139125173E2,1.804691404E-1,-1.422784626E-1,-1.980333626E-1
1.140125872E2,1.071653143E-1,-6.530943513E-2,-8.074722439E-2
1.141126513E2,-1.145787761E-1,9.901331365E-2,1.910878122E-1
1.142127174E2,-3.088339269E-1,2.815294638E-2,2.888262570E-1
1.143127873E2,-3.272282705E-2,-3.965309635E-2,3.047087491E-1
1.144128631E2,4.241359606E-2,-1.648804843E-1,1.434403211E-1
1.145129186E2,-3.469714429E-4,-1.644021645E-2,1.556576192E-1
1.146129882E2,-1.579502076E-1,-2.315973490E-2,-3.493232653E-2
1.147130510E2,3.080715612E-2,1.301674545E-1,1.719585620E-3
1.148131204E2,6.868080050E-2,-2.253561318E-1,-8.929933608E-2
1.149131923E2,-2.179567004E-3,-8.607885987E-2,-1.351142228E-1
1.150132548E2,1.064860262E-2,1.271131188E-1,-1.668792218E-1
1.151133222E2,-4.555099830E-2,3.262552023E-1,-1.980333626E-1
1.152133884E2,6.318301708E-2,1.320000440E-1,-7.647116482E-2
1.153134717E2,1.957407743E-1,-2.424603552E-1,-1.416291017E-2
1.154135273E2,-1.317514107E-2,-1.276176870E-1,2.493246458E-2
1.155136047E2,-2.013216466E-1,4.770063236E-2,2.839393318E-1
1.156136683E2,-2.844677307E-2,-9.463096410E-2,2.362918407E-1
1.157137205E2,2.275057733E-1,-6.230294108E-1,2.228527963E-1
1.158137921E2,-1.090809852E-1,-2.681167126E-1,1.293904334E-1
1.159138568E2,-1.237417534E-1,5.314527516E-5,-7.158424705E-2
1.160139365E2,-1.151896343E-1,-8.546798676E-2,-1.027383730E-1
1.161139933E2,-1.762761623E-1,9.412639588E-2,5.669745803E-2
1.162140610E2,-1.568701933E-3,1.118414849E-1,-1.650466323E-1
1.163141274E2,-4.066407681E-2,2.340145409E-1,-1.748204678E-1
1.164141994E2,9.555886686E-2,2.431775033E-1,-1.955898851E-1
1.165142653E2,4.241359606E-2,4.940067418E-3,-2.047528625E-1
1.166143340E2,2.128449976E-1,-2.717818916E-1,-5.570174754E-2
1.167143939E2,-1.023614630E-1,1.776823774E-2,-3.126713634E-2
1.168144743E2,-2.245345116E-1,1.368869692E-1,2.717220187E-1
1.169145297E2,-1.713892370E-1,-5.431386083E-2,2.521743178E-1
1.170146028E2,2.317818105E-1,-2.387951612E-1,2.613373101E-1
1.171146704E2,7.601118833E-2,-3.695203364E-1,1.190057173E-1
1.172147300E2,-1.420677006E-1,-9.218750894E-2,1.043449491E-1
1.173148005E2,-1.811630875E-1,-3.293357790E-2,-1.143448129E-1
1.174148700E2,6.196128577E-2,1.222261935E-1,-5.997780338E-2
1.175149474E2,8.639589697E-2,3.853765503E-2,-1.002949029E-1
1.176150019E2,-4.677273333E-2,6.419399381E-2,-1.790965199E-1
1.177150648E2,1.083870381E-1,1.662084907E-1,-2.279657423E-1
1.178151436E2,9.006109089E-2,5.564188212E-2,-2.627850771E-1
1.179152002E2,9.555886686E-2,-3.720963374E-2,-6.221662741E-3
1.180152759E2,1.010566577E-1,-3.090446889E-1,-3.371059895E-2
1.181153360E2,-8.892243356E-2,7.152437419E-2,1.006797552E-1
1.182154033E2,-1.756653041E-1,2.143342979E-2,3.065413535E-1
1.183154683E2,1.218260825E-1,2.547839582E-1,1.752053201E-1
1.184155463E2,3.301311433E-1,-1.050156802E-1,1.978073269E-1
1.185156157E2,-1.811630875E-1,-2.033649683E-1,1.690966636E-1
1.186156787E2,-5.593570694E-2,-1.312828809E-1,1.055666804E-1
1.187157429E2,-2.355985157E-2,-7.141809165E-2,-1.002949029E-1
1.188158121E2,4.546792060E-2,7.274610549E-2,-3.493232653E-2
1.189158725E2,1.485624351E-3,3.109835386E-1,-1.137339473E-1
1.190159434E2,-6.815301627E-2,4.184958637E-1,-2.096397877E-1
1.191160119E2,5.157657713E-2,3.891743124E-1,-1.833725870E-1
1.192160799E2,3.019629046E-2,4.502608478E-1,-8.135808259E-2
1.193161417E2,5.829609185E-2,2.248515636E-1,1.251143664E-1
1.194162146E2,-7.059647143E-2,-2.021432519E-1,1.336664706E-1
1.195162859E2,-2.147606611E-1,1.471391134E-2,2.454548180E-1
1.196163504E2,-7.792685926E-2,-1.160112545E-1,2.686676979E-1
1.197164023E2,1.920071617E-2,-4.306068420E-1,2.369027138E-1
1.198164827E2,-6.815301627E-2,-3.829593360E-1,1.464946419E-1
1.199165466E2,-1.487872303E-1,-2.363516986E-1,1.293904334E-1
1.200166097E2,-1.115244478E-1,-9.402010590E-2,-1.233031508E-2
1.201166809E2,1.487041414E-1,1.043785457E-2,-6.181039661E-2
1.202167477E2,9.616973996E-2,1.399412900E-1,-9.052106738E-2
1.203168119E2,6.372546311E-3,3.091509640E-1,-2.224679589E-1
1.204168794E2,1.963516325E-1,2.798294425E-1,-1.986442059E-1
1.205169540E2,2.042928934E-1,2.065256089E-1,-2.548438013E-1
1.206170630E2,2.232297063E-1,8.862860501E-2,-3.554319218E-2
1.207171273E2,1.151065603E-1,-2.229126692E-1,3.776063398E-2
1.208171998E2,9.250454605E-2,-1.569392234E-1,1.116753295E-1
1.209172615E2,-2.661417797E-2,4.220284522E-2,1.727618575E-1
1.210173290E2,-1.115244478E-1,9.826988913E-3,2.271288633E-1
1.211173969E2,8.334156871E-2,-2.394060344E-1,2.350701094E-1
1.212174638E2,-1.151896343E-1,-2.839992046E-1,2.527852058E-1
1.213175372E2,-1.304612756E-1,-2.003106475E-1,9.640370309E-2
1.214175963E2,-1.568701933E-3,-8.498968557E-3,2.615419589E-2
1.215176722E2,-1.359590590E-1,1.106197536E-1,-1.564945132E-1
1.216177314E2,-9.380935878E-2,2.150777131E-1,-1.577162445E-1
1.217177945E2,-8.525723964E-2,5.930707604E-2,-1.748204678E-1
1.218178787E2,-9.442021698E-2,1.539911777E-1,-2.236896902E-1
1.219179402E2,5.890695751E-2,9.216123261E-3,-1.693226844E-1
1.220180085E2,1.485624351E-3,-1.147895232E-1,-2.943454124E-2
1.221180677E2,3.997013345E-2,-2.644515038E-1,-3.167336341E-3
1.222181362E2,-1.158005074E-1,7.994392887E-3,9.334937483E-2
1.223182017E2,-1.829956770E-1,-5.736818537E-2,2.448439449E-1
1.224182751E2,-6.455624010E-3,-3.505834937E-1,1.678749323E-1
1.225183355E2,-4.188580811E-2,-2.693384290E-1,1.538250297E-1
1.226184028E2,-9.808541089E-2,-9.035491198E-2,9.090591222E-2
1.227184650E2,-8.586810529E-2,-1.033156365E-2,-8.929933608E-2
1.228185362E2,2.055146247E-1,8.251994848E-2,-3.248886764E-2
1.229186096E2,6.135041639E-2,1.900322437E-1,-1.277838498E-1
1.230186709E2,5.150815938E-3,1.991952211E-1,-1.833725870E-1
1.231187398E2,2.458317280E-1,4.911888242E-1,-2.346852571E-1
1.232188088E2,1.401520371E-1,3.164813519E-1,-1.907029748E-1
1.233188749E2,2.391121984E-1,-7.569414377E-2,-1.033492386E-1
1.234189401E2,7.112426311E-2,-1.703782678E-1,8.296465874E-2
1.235190086E2,-4.188580811E-2,-2.430712283E-1,1.990290582E-1
1.236190729E2,-1.426785737E-1,4.329202231E-3,2.356809676E-1
1.237191366E2,-1.176330969E-1,-2.058084458E-1,1.959747374E-1
1.238192145E2,7.594276685E-3,-2.247452736E-1,1.116753295E-1
1.239192752E2,-2.966850251E-2,-2.809448540E-1,1.727618575E-1
1.240193423E2,-8.770070225E-2,-1.557174921E-1,2.197984755E-1
1.241194112E2,-1.774978936E-1,-2.132713981E-2,-1.412228793E-1
1.242194809E2,8.273070306E-2,1.136740819E-1,-2.096397877E-1
1.243195494E2,3.630494326E-2,1.955300272E-1,-2.304092050E-1
1.244196163E2,4.119186476E-2,4.844692945E-1,-2.047528625E-1
1.245196850E2,-2.037650943E-1,3.958938420E-1,-1.546619087E-1
1.246197510E2,-2.478158101E-2,1.381086856E-1,-1.155665442E-1
1.247198113E2,2.096489538E-3,3.365073353E-2,6.606507581E-3
1.248198786E2,-1.073168125E-2,-2.467364222E-1,3.165198490E-2
1.249199467E2,1.248119865E-2,-8.852231503E-2,1.208383068E-1
1.250200130E2,-3.754182458E-1,8.251994848E-2,2.827175856E-1
1.251200848E2,4.413085878E-1,-1.911476701E-1,2.650024891E-1
1.252201550E2,-9.578366880E-4,-2.546776533E-1,1.898660809E-1
1.253202154E2,-4.432927072E-2,-1.074591354E-1,4.753447697E-2
1.254202886E2,7.051339746E-2,4.586803913E-2,5.608659238E-2
1.255203629E2,6.135041639E-2,1.600998342E-1,-1.843896694E-2
1.256204158E2,2.476643175E-1,-3.965309635E-2,-2.576934919E-2
1.257204774E2,6.806994230E-2,6.297226995E-2,-2.181919068E-1
1.258205574E2,6.868080050E-2,8.496341854E-2,-2.536220849E-1
1.259206204E2,1.419846416E-1,6.113967299E-2,-3.073782325E-1
1.260206857E2,4.791138321E-2,-1.135677844E-1,-1.064035669E-1
1.261207637E2,-8.342464268E-2,-4.330503345E-1,8.846244961E-2
1.262208205E2,-1.182439625E-1,-1.361698061E-1,-1.334740547E-3
1.263208873E2,-2.489691377E-1,1.778149307E-1,9.762542695E-2
1.264209533E2,-1.212982833E-1,7.213524729E-2,1.739835888E-1
1.265210218E2,6.868080050E-2,1.393304169E-1,1.275578290E-1
1.266210872E2,1.125946827E-2,1.546020508E-1,2.533960640E-1
1.267211499E2,-1.371807903E-1,6.175053492E-2,1.196165755E-1
1.268212273E2,4.424619302E-2,2.004169524E-1,1.666532010E-1
1.269212974E2,9.861319512E-2,2.816620171E-1,7.013648748E-2
1.270213584E2,5.340916663E-2,1.539911777E-1,-3.981925175E-2
1.271214230E2,3.997013345E-2,3.348073065E-1,-6.669732183E-2
1.272214910E2,5.218743905E-2,1.784258038E-1,-1.656574905E-1
1.273215668E2,7.112426311E-2,1.106197536E-1,-1.540510505E-1
1.274216240E2,1.285455972E-1,-1.807629764E-1,5.181053653E-2
1.275216925E2,2.360578775E-1,-5.460603833E-1,3.776063398E-2
1.276217587E2,8.150897175E-2,-1.538849026E-1,1.012906209E-1
1.277218213E2,9.983493388E-2,2.993771136E-1,7.991033792E-2
1.278220180E2,4.363532737E-2,4.098111764E-2,3.584648669E-1
1.279220924E2,3.752667084E-2,-3.640225530E-1,3.266998827E-1
1.280221607E2,-1.329047233E-1,-3.017143011E-1,2.130789608E-1
1.281222207E2,-2.599647045E-1,-3.224837184E-1,4.509101808E-2
1.282222899E2,-1.084701270E-1,-2.632297575E-1,-7.830376178E-2
1.283223567E2,2.775282972E-2,-3.328683972E-1,-7.219510525E-2
1.284224220E2,-6.021176651E-2,-2.876643836E-1,-2.016985416E-1
1.285224935E2,-2.227019221E-1,-1.838172972E-1,-3.171520829E-1
1.286225571E2,-2.281997055E-1,2.095799297E-1,-3.977862895E-1
1.287226269E2,-4.432927072E-2,2.199646235E-1,-3.971754014E-1
1.288226912E2,-5.899003521E-2,1.087871566E-1,-1.546619087E-1
1.289227625E2,-2.233812027E-2,1.594889611E-1,3.531717137E-2
1.290228309E2,4.852224886E-2,2.480644435E-1,1.269469559E-1
1.291228927E2,2.286590822E-2,1.271131188E-1,1.605445594E-1
1.292229595E2,-1.928379387E-2,1.252805144E-1,2.839393318E-1
1.293230262E2,3.141802177E-2,-1.691565216E-1,3.114282489E-1
1.294230973E2,1.273238659E-1,-3.395879269E-1,2.234636694E-1
1.295231623E2,-3.272282705E-2,-2.510124743E-1,2.920852043E-2
1.296232284E2,1.181608886E-1,-7.874847203E-2,4.325842112E-2
1.297232882E2,-3.027937002E-2,3.718336811E-3,-8.380155265E-2
1.298233603E2,-4.249667376E-2,4.281371459E-2,-1.473315209E-1
1.299234279E2,1.377085745E-1,1.161175370E-1,-2.029202729E-1
1.300234948E2,1.377085745E-1,1.985843480E-1,-1.619922966E-1
1.301235625E2,7.784377784E-2,1.600998342E-1,-2.169701755E-1
1.302236347E2,1.932973117E-1,6.161797326E-3,-1.424446106E-1
1.303237003E2,2.897455916E-2,-1.337263435E-1,6.606507581E-3
1.304237634E2,-1.316829920E-1,-1.227307692E-1,1.128970534E-1
1.305238326E2,-2.275888324E-1,8.679601550E-2,1.116753295E-1
1.306238983E2,-1.481763572E-1,3.213682473E-1,2.698894441E-1
1.307239636E2,1.144956946E-1,-1.007396132E-1,2.301831841E-1
1.308240342E2,-1.012081560E-2,-1.630478799E-1,2.564503849E-1
1.309240994E2,-4.982705787E-2,-4.148568958E-2,1.232817695E-1
1.310241665E2,-6.815301627E-2,-2.987925150E-2,-4.837136343E-2
1.311242337E2,1.102196351E-1,5.991793796E-2,-5.081482604E-2
1.312243107E2,7.594276685E-3,-1.949454285E-2,-8.624500781E-2
1.313243757E2,-1.365699172E-1,9.351552278E-2,-1.833725870E-1
1.314244362E2,-1.867293008E-2,2.034712732E-1,-2.371287197E-1
1.315245028E2,5.150815938E-3,6.602659076E-2,-2.438482344E-1
1.316245725E2,9.800233692E-2,-1.489979774E-1,-1.436663419E-1
1.317246306E2,3.569407761E-2,-2.284104675E-1,3.837150335E-2
1.318247027E2,-1.610045284E-1,1.497151405E-1,2.248900384E-2
1.319247894E2,-8.831156790E-2,3.177030683E-1,2.051377147E-1
1.320248499E2,8.273070306E-2,1.594889611E-1,2.375135720E-1
1.321249066E2,9.616973996E-2,-1.644021645E-2,1.642097533E-1
1.322249786E2,-5.043792352E-2,1.057328358E-1,2.314049155E-1
1.323250449E2,-1.530632824E-1,8.923947066E-2,9.945802391E-2
1.324251118E2,4.302445799E-2,6.480485946E-2,1.202274412E-1
1.325251832E2,2.958542667E-2,2.754208259E-2,4.753447697E-2
1.326252411E2,7.478944957E-2,-4.270742089E-2,-1.131230742E-1
1.327253045E2,-6.876387447E-2,1.845344603E-1,-1.778748035E-1
1.328253766E2,-1.225200221E-1,7.274610549E-2,-1.760421991E-1
1.329254440E2,-1.457328945E-1,-3.171184659E-2,-2.943454124E-2
1.330255087E2,5.279830471E-2,-3.597464859E-1,6.280610710E-2
1.331255904E2,1.273238659E-1,-2.461255491E-1,5.486486107E-2
1.332256514E2,-3.027937002E-2,5.747447908E-2,4.386929050E-2
1.333257120E2,-1.555067450E-1,6.052880362E-2,1.739835888E-1
1.334257897E2,-7.731599361E-2,-1.202873066E-1,1.660423428E-1
1.335258457E2,-5.654657260E-2,-5.920078233E-2,1.990290582E-1
1.336259139E2,-2.538560629E-1,1.277239770E-1,9.151677787E-2
1.337259817E2,-1.793304831E-1,1.613215655E-1,-8.074722439E-2
1.338260518E2,-1.439003050E-1,1.692628115E-1,-1.015166417E-1
1.339261161E2,9.067194909E-2,2.754208259E-2,-1.241186559E-1
1.340261938E2,-1.256427635E-2,1.654650643E-2,-1.528293192E-1
1.341262520E2,1.071653143E-1,4.525717348E-2,-2.169701755E-1
1.342263152E2,1.920071617E-2,1.680410951E-1,-1.619922966E-1
1.343263807E2,2.103331126E-2,-5.444642156E-3,-3.248886764E-2
1.344264483E2,1.517584622E-1,1.277239770E-1,9.518197179E-2
1.345265223E2,1.224369407E-1,-3.476617485E-2,1.678749323E-1
1.346265840E2,1.028892547E-1,-1.155329403E-2,2.497308850E-1
1.347266503E2,-4.066407681E-2,-3.904222697E-2,2.466765493E-1
1.348267199E2,2.177319229E-1,-4.116700292E-1,1.067884043E-1
1.349267836E2,1.432063580E-1,-4.855847061E-1,1.049558073E-1
1.350268554E2,-1.255743504E-1,-4.452676177E-1,-5.875607207E-2
1.351269201E2,-3.974093795E-1,-8.546798676E-2,-3.248886764E-2
1.352269991E2,-9.930714220E-2,1.100088879E-1,-1.051818281E-1
1.353270542E2,1.706952900E-1,1.668193489E-1,-9.113193303E-2
1.354271244E2,-7.059647143E-2,3.415268362E-1,-8.502327651E-2
1.355271893E2,7.967637479E-2,3.647396863E-1,-2.035311460E-1
1.356272606E2,6.806994230E-2,3.360290229E-1,-1.528293192E-1
1.357273237E2,6.684820354E-2,2.773859501E-1,-1.955898851E-1
1.358273894E2,1.077761799E-1,-1.233416349E-1,7.991033792E-2
1.359274563E2,-1.958238482E-1,-2.497907430E-1,1.000688970E-1
1.360275307E2,-1.322938651E-1,-1.099025980E-1,1.526032984E-1
1.361275962E2,6.372546311E-3,-7.325068861E-2,7.624514401E-2
1.362276655E2,-1.933803856E-1,-3.230945766E-1,1.984182000E-1
1.363277274E2,3.796111941E-1,-1.208981723E-1,1.764270514E-1
1.364277929E2,-2.850101590E-1,-4.454001784E-2,1.037340835E-1
1.365278642E2,-1.781087667E-1,4.276588261E-1,1.281686872E-1
1.366279326E2,-6.082263216E-2,-5.125953630E-2,-4.203883111E-1
1.367279956E2,1.523693353E-1,1.698736846E-1,1.312230229E-1
1.368280617E2,1.254912764E-1,1.558237821E-1,-1.681009531E-1
1.369281354E2,7.478944957E-2,3.671831787E-1,-2.149329334E-2
1.370282004E2,6.012868881E-2,6.847005337E-2,-1.760421991E-1
1.371282683E2,1.675725542E-2,-4.209655896E-2,9.762542695E-2
1.372283293E2,1.945190430E-1,-7.935933769E-2,-2.271502465E-2
1.373284012E2,-1.200765595E-1,-7.935933769E-2,1.898660809E-1
1.374284670E2,-2.361409664E-1,9.216123261E-3,2.081920356E-1
1.375285357E2,-1.457328945E-1,-1.465545148E-1,4.268818200E-1
1.376286039E2,1.273238659E-1,-3.756289780E-1,3.279216290E-1
1.377286606E2,-1.072483882E-1,-3.799050152E-1,1.758161783E-1
1.378287380E2,-2.288105786E-1,-3.774615824E-1,8.601898700E-2
1.379288015E2,-6.937474012E-2,-3.628008068E-1,-1.790965199E-1
1.380288676E2,-5.165965110E-2,-4.483219385E-1,-2.027156204E-2
1.381289336E2,-1.200765595E-1,-4.306068420E-1,-3.483062088E-1
1.382290064E2,-1.903260648E-1,-1.544957608E-1,-3.586909175E-1
1.383290685E2,-2.251453847E-1,9.107206762E-2,-4.161122441E-1
1.384291353E2,-4.860532656E-2,9.412639588E-2,-3.764060140E-1
1.385292083E2,-9.509949945E-3,2.120233923E-1,-1.265621185E-1
1.386292695E2,1.505367458E-1,-1.044048071E-1,-3.615406156E-2
1.387293360E2,7.234599441E-2,-1.644021645E-2,3.837150335E-2
1.388294097E2,-1.568701933E-3,2.969336510E-1,1.495489776E-1
1.389294767E2,1.706952900E-1,5.991793796E-2,2.442330867E-1
1.390295431E2,8.578502387E-2,-9.340924025E-2,3.095956743E-1
1.391296047E2,-1.745119877E-2,-1.282285601E-1,3.266998827E-1
1.392296741E2,-2.355300933E-1,-1.013504863E-1,-1.233031508E-2
1.393297436E2,-6.082263216E-2,1.863670498E-1,-1.418337375E-1
1.394298122E2,7.662204653E-2,1.271131188E-1,-1.418337375E-1
1.395298740E2,-4.738359526E-2,1.723171324E-1,-2.047528625E-1
1.396299417E2,7.234599441E-2,1.936974376E-1,-1.931464225E-1
1.397300089E2,1.493150145E-1,2.175211757E-1,-2.047528625E-1
1.398300911E2,1.542019397E-1,-1.074591354E-1,-1.674900800E-1
1.399301463E2,8.150897175E-2,-2.748362124E-1,1.122861952E-1
1.400302103E2,9.433714300E-2,-3.377553523E-1,3.531717137E-2
1.401302882E2,6.501560658E-2,1.429956108E-1,5.486486107E-2
1.402303459E2,2.653109841E-2,4.472065270E-1,1.782596409E-1
1.403304121E2,-9.747454524E-2,2.266841531E-1,2.882153988E-1
1.404304869E2,-9.442021698E-2,1.776823774E-2,1.978073269E-1
1.405305464E2,-6.265522540E-2,1.515477300E-1,1.416077316E-1
1.406306106E2,-7.731599361E-2,1.252805144E-1,4.753447697E-2
1.407306790E2,1.125946827E-2,2.346253991E-1,-7.830376178E-2
1.408307484E2,-2.783590741E-2,9.290466458E-2,3.837150335E-2
1.409308210E2,4.668965191E-2,2.028604150E-1,1.271515992E-2
1.410308870E2,1.658083797E-1,1.619324386E-1,-6.242126599E-2
1.411309522E2,4.730051756E-2,-1.025722101E-1,-1.790965199E-1
1.412310158E2,-1.568701933E-3,-3.530269861E-1,1.202274412E-1
1.413310855E2,1.083870381E-1,-5.882101059E-1,1.147296503E-1
1.414311524E2,-1.329047233E-1,-2.839992046E-1,-4.837136343E-2
1.415312260E2,-5.837916955E-2,-2.436820865E-1,2.676505968E-2
1.416312858E2,-1.158005074E-1,-4.833776504E-3,9.518197179E-2
1.417313475E2,1.865777820E-1,-1.789303720E-1,1.257252246E-1
1.418314219E2,-4.066407681E-2,-2.644515038E-1,9.273850918E-2
1.419314905E2,-1.500773709E-2,1.185610071E-1,-5.020396039E-2
1.420315567E2,-5.227051675E-2,1.955300272E-1,-1.546619087E-1
1.421316197E2,-1.806206256E-2,2.651686668E-1,-1.198425964E-1
1.422316986E2,-5.960089713E-2,3.610745072E-1,-2.291874737E-1
1.423319123E2,4.730051756E-2,5.021843910E-1,-8.868847042E-2
1.424319801E2,9.922406077E-2,4.924105108E-1,-6.119953468E-2
1.425320487E2,6.623734534E-2,3.146487474E-1,-9.540799260E-2
1.426321131E2,-1.073168125E-2,2.932684720E-1,6.036264822E-2
1.427321781E2,1.981158182E-2,1.234479249E-1,3.004326820E-1
1.428322491E2,5.218743905E-2,5.258755386E-2,1.544359028E-1
1.429323182E2,-6.937474012E-2,-7.277237717E-3,4.360447824E-1
1.430323823E2,-1.164113730E-1,-3.316467106E-1,3.554105461E-1
1.431324523E2,-1.066375300E-1,-2.223018110E-1,2.876045108E-1
1.432325277E2,6.073955074E-2,-2.882752419E-1,1.800922453E-1
1.433325927E2,-1.133570373E-1,-3.279815018E-1,1.373316646E-1
1.434326555E2,-3.204403818E-1,-2.925513089E-1,-9.113193303E-2
1.435327185E2,-1.946021169E-1,-1.661022007E-1,-1.668792218E-1
1.436327889E2,3.630494326E-2,-1.520523131E-1,7.563427836E-2
1.437328492E2,-1.115244478E-1,-3.078229427E-1,-2.090289295E-1
1.438329220E2,-1.103027165E-1,-1.819846928E-1,-3.531931043E-1
1.439329919E2,8.761762083E-2,-7.202894986E-2,-4.173339903E-1
1.440330536E2,-1.341264695E-1,-9.340924025E-2,-5.077420473E-1
1.441331205E2,1.645866334E-1,-3.049011528E-2,-2.957717776E-1
1.442331865E2,2.030711472E-1,1.069545671E-1,-3.615406156E-2
1.443332572E2,1.877995282E-1,1.710954159E-1,1.821294799E-2
1.444333261E2,1.614639163E-2,4.514825642E-1,8.540812880E-2
1.445333897E2,-1.371807903E-1,3.867308497E-1,3.444149792E-1
1.446334616E2,-3.211196512E-2,1.234479249E-1,1.519924253E-1
1.447335229E2,-3.211196512E-2,1.374978125E-1,1.581010967E-1
1.448335906E2,-1.548958719E-1,2.706664503E-1,1.025123522E-1
1.449336617E2,-1.597828120E-1,3.971155286E-1,1.104535982E-1
1.450337301E2,-1.072483882E-1,3.079292178E-1,-2.556471154E-3
1.451337919E2,3.691580892E-2,-2.131388187E-1,7.257995754E-2
1.452338633E2,-3.760975227E-2,-1.251742393E-1,-1.424446106E-1
1.453339285E2,1.003773790E-2,2.914358377E-1,-2.236896902E-1
1.454339950E2,2.225504257E-2,2.224081010E-1,-1.662683636E-1
1.455340668E2,2.116232812E-1,2.987662256E-1,-1.815399975E-1
1.456341311E2,8.273070306E-2,2.346253991E-1,-1.326707602E-1
1.457341908E2,3.935926780E-2,-9.096577764E-2,1.971964538E-1
1.458342675E2,1.859669387E-1,3.853765503E-2,1.196165755E-1
1.459343361E2,1.261021346E-1,3.609419614E-2,1.080101430E-1
1.460343997E2,1.126630977E-1,3.775678575E-1,2.008616477E-1
1.461344681E2,1.431379374E-2,4.484282136E-1,1.959747374E-1
1.462345304E2,2.464425862E-1,1.075654328E-1,3.010435402E-1
1.463346105E2,3.318219911E-3,1.717062891E-1,3.352520168E-1
1.464346630E2,-1.652805954E-1,1.564346403E-1,3.287371621E-2
1.465347356E2,-4.005321115E-2,2.509861998E-2,-1.876486391E-1
1.466347999E2,2.892031670E-1,2.902141511E-1,-6.303212792E-2
1.467348651E2,8.761762083E-2,4.398761392E-1,-1.571053714E-1
1.468349313E2,2.469850332E-2,2.486752868E-1,-1.094578877E-1
1.469350045E2,-9.686367959E-2,3.684048653E-1,-4.776049778E-2
1.470350770E2,1.175500154E-1,1.985843480E-1,-9.724058211E-2
1.471351362E2,-1.011397392E-1,2.034712732E-1,-9.113193303E-2
1.472352067E2,-1.585610658E-1,1.136740819E-1,6.708216667E-2
1.473352744E2,7.601118833E-2,-2.186366171E-1,3.425824046E-1
1.474353437E2,3.386148065E-2,5.503101647E-2,2.326266468E-1
1.475354036E2,1.675725542E-2,-8.546798676E-2,2.601155639E-1
1.476354691E2,-1.964347064E-1,4.178849757E-1,2.234636694E-1
1.477355315E2,1.352651119E-1,2.486752868E-1,1.721509844E-1
1.478356082E2,3.202888370E-2,8.740687370E-2,1.171731204E-1
1.479356717E2,-8.892243356E-2,2.028604150E-1,1.086210012E-1
1.480357436E2,-1.255743504E-1,1.784258038E-1,-9.886854328E-3
1.481358119E2,-2.123172134E-1,2.059147358E-1,-6.058866903E-2
1.482358832E2,6.379388273E-2,2.204429358E-2,-1.125122160E-1
1.483359387E2,1.340433806E-1,2.352362722E-1,-8.013635874E-2
1.484360142E2,1.761930883E-1,2.266841531E-1,-1.155665442E-1
1.485360806E2,7.295685261E-2,2.370688617E-1,-1.668792218E-1
1.486361398E2,-9.509949945E-3,3.085401058E-1,-2.114723772E-1
1.487362046E2,1.083870381E-1,1.765931994E-1,8.113206178E-2
1.488362838E2,8.273070306E-2,-3.401987851E-1,1.929204166E-1
1.489363545E2,2.360578775E-1,-6.077577472E-1,2.387353033E-1
1.490364228E2,-4.555099830E-2,-7.080721855E-2,5.486486107E-2
1.491364768E2,-1.665023267E-1,2.749425173E-1,1.251143664E-1
1.492365471E2,-1.347373128E-1,1.582672447E-1,6.463870406E-2
1.493366119E2,-1.243526191E-1,7.641129941E-2,6.952562928E-2
1.494366841E2,-3.699888662E-2,2.230189741E-1,5.547572672E-2
1.495367520E2,-2.837884426E-1,1.912539601E-1,-1.538464148E-2
1.496369855E2,-5.288138241E-2,2.615034878E-1,6.341698021E-2
1.497370536E2,2.592023462E-2,2.926575840E-1,-5.264742300E-2
1.498371271E2,1.206043437E-1,4.753063023E-1,-4.531703889E-2
1.499371895E2,5.646349862E-2,4.795823693E-1,-7.280597836E-2
1.500372590E2,-2.179567004E-3,3.403050900E-1,-5.814520642E-2
1.501373231E2,-3.883148357E-2,2.633360624E-1,-6.058866903E-2
1.502373928E2,8.395243436E-2,2.639469206E-1,-8.929933608E-2
1.503374537E2,4.302445799E-2,4.892236367E-2,1.232817695E-1
1.504375238E2,8.211983740E-2,-4.709239602E-1,3.181478083E-1
1.505375900E2,1.700844318E-1,-2.131388187E-1,1.513815820E-1
1.506376539E2,-1.561176181E-1,1.741497368E-1,1.342773438E-1
1.507377243E2,-2.214801908E-1,4.844692945E-1,1.446620524E-1
1.508377906E2,1.261021346E-1,6.161797326E-3,1.599336863E-1
1.509378563E2,6.257214397E-2,-1.251742393E-1,9.457110614E-2
1.510379247E2,4.302445799E-2,1.043785457E-2,1.037340835E-1
1.511379915E2,-4.432927072E-2,1.227045059E-2,5.303226411E-2
1.512380639E2,1.432063580E-1,-6.714203209E-2,-5.020396039E-2
1.513381262E2,1.071653143E-1,1.210044622E-1,-3.432146460E-2
1.514381920E2,5.646349862E-2,-5.003780499E-2,-1.821508557E-1
1.515382699E2,-3.469714429E-4,2.570948564E-2,-1.039600968E-1
1.516383253E2,7.906551659E-2,1.735388786E-1,-1.503858715E-1
1.517383952E2,6.623734534E-2,2.570948564E-2,-1.259512454E-1
1.518384671E2,-1.158005074E-1,-2.003106475E-1,-5.753434449E-2
1.519385288E2,5.157657713E-2,-3.334792852E-1,1.336664706E-1
1.520385987E2,1.596997231E-1,-3.560813069E-1,9.334937483E-2
1.521386623E2,-1.989465952E-2,-1.025722101E-1,1.226709038E-1
1.522387318E2,-3.418206573E-1,4.075002670E-1,1.025123522E-1
1.523387972E2,-4.921618849E-2,3.109835386E-1,8.724072576E-2
1.524388759E2,-6.326609105E-2,-3.354444355E-2,1.251143664E-1
1.525389324E2,-1.695566475E-1,-2.438146435E-2,1.043449491E-1
1.526389958E2,-1.139679104E-1,2.120233923E-1,1.104535982E-1
1.527390642E2,-1.256427635E-2,1.167284101E-1,-6.791905314E-2
1.528391448E2,1.377085745E-1,1.898996718E-2,9.396023303E-2
1.529392098E2,9.311541170E-2,1.289457083E-1,-7.891462743E-2
1.530392672E2,6.440474838E-2,2.670012414E-1,-1.406120211E-1
1.531393386E2,8.028724045E-2,2.761642337E-1,-1.589379758E-1
1.532394018E2,3.019629046E-2,2.114125192E-1,-8.868847042E-2
1.533394768E2,2.061254829E-1,-4.881607369E-2,-1.283947080E-1
1.534395340E2,2.519403696E-1,-2.833883464E-1,-7.238753606E-4
1.535396014E2,2.055146247E-1,-3.860137165E-1,7.257995754E-2
1.536396665E2,-1.750544310E-1,-1.819846928E-1,7.807774097E-2
1.537397382E2,-2.043759674E-1,-1.094242930E-2,1.092318743E-1
1.538398121E2,-3.699888662E-2,4.831150174E-2,1.446620524E-1
1.539398762E2,3.508321196E-2,5.380928889E-2,8.113206178E-2
1.540399366E2,-1.622262597E-1,1.503259838E-1,9.884715825E-2
1.541400079E2,-1.811630875E-1,-4.454001784E-2,-1.045709699E-1
1.542400757E2,1.675725542E-2,1.655976325E-1,-4.959309474E-2
1.543401376E2,-1.072483882E-1,1.142849401E-1,-6.242126599E-2
1.544402135E2,1.370292995E-2,3.122052848E-1,-8.054258302E-3
1.545402741E2,1.187033392E-2,1.527694613E-1,-2.065854669E-1
1.546403378E2,3.202888370E-2,3.311421275E-1,-7.158424705E-2
1.547404092E2,-3.516628966E-2,2.260732949E-1,-5.142568797E-2
1.548404853E2,-9.197676182E-2,-1.819846928E-1,2.330451040E-3
1.549405445E2,1.071653143E-1,-5.161280036E-1,2.002507895E-1
1.550406130E2,3.508321196E-2,-3.603573740E-1,1.202274412E-1
1.551406818E2,-9.686367959E-2,-3.001180943E-3,5.914091691E-2
1.552407428E2,-9.564195573E-2,1.906431019E-1,1.208383068E-1
1.553408167E2,-6.693128496E-2,7.641129941E-2,3.089848161E-1
1.554408816E2,1.797898673E-2,-5.431386083E-2,2.424004972E-1
1.555409431E2,-1.707783788E-1,-1.129569262E-1,9.762542695E-2
1.556410104E2,-4.738359526E-2,-1.050156802E-1,-1.173991412E-1
1.557410764E2,8.456330001E-2,-4.087482393E-2,-3.798665479E-2
1.558411512E2,1.340433806E-1,5.930707604E-2,-1.039600968E-1
1.559412243E2,1.144956946E-1,-1.636587381E-1,-2.383504510E-1
1.560412875E2,3.386148065E-2,-2.071627229E-2,-1.839834452E-1
1.561413483E2,-7.120733708E-2,1.374978125E-1,-1.949790120E-1
1.562414156E2,-4.005321115E-2,5.014409497E-2,-1.650466323E-1
1.563414929E2,-1.060266569E-1,-1.062374040E-1,8.907331526E-2
1.564415490E2,6.501560658E-2,-2.394060344E-1,3.714976832E-2
1.565416172E2,5.463090166E-2,-2.455146760E-1,6.708216667E-2
1.566416798E2,-1.359590590E-1,2.016386688E-1,1.929204166E-1
1.567417466E2,-1.182439625E-1,1.570455134E-1,2.283505797E-1
1.568418623E2,5.646349862E-2,-2.675058246E-1,1.538250297E-1
1.569419193E2,7.662204653E-2,-1.551066339E-1,1.330556124E-1
1.570419867E2,-2.294898592E-2,-2.461255491E-1,7.563427836E-2
1.571420596E2,-4.677273333E-2,4.892236367E-2,-9.174279869E-2
1.572421229E2,1.157174259E-1,1.527694613E-1,-7.647116482E-2
1.573421897E2,8.028724045E-2,1.570455134E-1,-7.524943352E-2
1.574422557E2,-3.944234923E-2,2.326602489E-2,-2.646176815E-1
1.575423237E2,-7.914859056E-2,1.349218097E-2,-1.259512454E-1
1.576423877E2,-6.326609105E-2,-5.492473021E-2,-2.181919068E-1
1.577424526E2,-8.892243356E-2,-7.874847203E-2,-1.021274999E-1
1.578425242E2,1.212152094E-1,-2.668949664E-1,4.264755547E-2
1.579425928E2,2.672120035E-1,-2.363516986E-1,5.364312977E-2
1.580426580E2,-8.220291138E-2,2.926575840E-1,1.562684923E-1
1.581427331E2,-1.176330969E-1,2.089690566E-1,2.130789608E-1
1.582427923E2,-3.699888662E-2,-7.813760638E-2,3.926733434E-1
1.583428610E2,1.370292995E-2,-1.013504863E-1,3.370845914E-1
1.584429313E2,-2.214801908E-1,-2.375734448E-1,2.859765664E-2
1.585430027E2,-2.074302882E-1,-2.412386388E-1,-1.852051914E-1
1.586430641E2,1.132739633E-1,-5.614645779E-2,-1.294117980E-2
1.587431246E2,-1.408459842E-1,-2.315973490E-2,-2.638021484E-2
1.588431999E2,1.064860262E-2,-1.092917323E-1,-2.817218900E-1
1.589432620E2,-3.211196512E-2,1.295565814E-1,-1.546619087E-1
1.590433341E2,-2.850101590E-1,2.169103026E-1,-2.517894804E-1
1.591433971E2,-4.555099830E-2,-1.949454285E-2,-1.119013503E-1
1.592434672E2,2.408763953E-2,-1.593826860E-1,-2.556471154E-3
1.593435364E2,1.132739633E-1,-2.766688168E-1,3.959323093E-2
1.594436024E2,-1.329047233E-1,-1.154003814E-1,1.638035290E-2
1.595436649E2,-2.453039438E-1,-6.042251736E-2,1.721509844E-1
1.596437295E2,7.662204653E-2,8.605258539E-3,2.485091388E-1
1.597437963E2,1.798582822E-1,-2.296321839E-1,2.802741528E-1
1.598438692E2,-6.265522540E-2,-1.172329783E-1,2.002507895E-1
1.599439390E2,9.433714300E-2,-1.221199036E-1,-9.275988676E-3
1.600440025E2,6.868080050E-2,5.442015082E-2,-1.599550620E-2
1.601440688E2,1.340433806E-1,-1.899259537E-1,-7.769289613E-2
1.602441480E2,1.694735736E-1,-3.476617485E-2,3.776063398E-2
1.603442080E2,-6.265522540E-2,-9.463096410E-2,-1.393902898E-1
1.604442717E2,-1.475654840E-1,6.175053492E-2,-1.839834452E-1
1.605443373E2,4.730051756E-2,-2.155822963E-1,-1.742096096E-1
1.606444006E2,-5.104878545E-2,-3.963983953E-1,-7.238753606E-4
1.607444671E2,2.293383628E-1,-7.977368832E-1,1.269469559E-1
1.608445379E2,4.241359606E-2,-3.145424426E-1,1.165622473E-1
1.609446057E2,-1.640588492E-1,-9.890703112E-2,1.916986704E-1
1.610446749E2,-3.057796061E-1,-3.224837184E-1,1.752053201E-1
1.611447461E2,-1.573393345E-1,-5.368974209E-1,2.033051103E-1
1.612448068E2,-1.298504025E-1,-5.026889443E-1,1.489381045E-1
1.613448779E2,-2.978383601E-1,-3.316467106E-1,-1.485532671E-1
1.614449437E2,-9.869627655E-2,2.265515924E-2,-2.927174568E-1
1.615450112E2,7.051339746E-2,1.313891709E-1,4.692361504E-2
1.616450763E2,-5.288138241E-2,-2.193800360E-2,-7.830376178E-2
1.617451399E2,3.202888370E-2,3.914852068E-2,-2.010876834E-1
1.618452101E2,2.096489538E-3,1.173392683E-1,-1.876486391E-1
1.619452773E2,5.707436055E-2,-3.659877181E-2,-2.444591075E-1
1.620453493E2,4.058100283E-2,-4.110591710E-1,-2.556471154E-3
1.621454181E2,4.791138321E-2,-7.897955775E-1,6.891476363E-2
1.622454841E2,-5.104878545E-2,-4.642044306E-1,4.203669354E-2
1.623455504E2,-5.288138241E-2,-3.110098280E-2,1.699121669E-2
1.624456142E2,-9.625281394E-2,5.991793796E-2,2.197984755E-1
1.625456955E2,8.639589697E-2,-3.304249644E-1,1.025123522E-1
1.626457505E2,-1.928379387E-2,-2.662840784E-1,7.502341270E-2
1.627458100E2,-2.227019221E-1,-3.049011528E-2,4.448015243E-2
1.628458827E2,-1.469546407E-1,-1.923694015E-1,-4.104098305E-2
1.629459502E2,-4.494013637E-2,-1.520523131E-1,2.187814005E-2
1.630460144E2,-8.342464268E-2,-2.650623918E-1,-2.090289295E-1
1.631460981E2,-8.281378448E-2,-3.843136504E-2,-1.845943183E-1
1.632461574E2,2.638937731E-4,-4.833776504E-3,-2.798892856E-1
1.633462164E2,-4.555099830E-2,1.619324386E-1,-3.257041872E-1
1.634462824E2,3.141802177E-2,-4.148568958E-2,-4.104098305E-2
1.635463511E2,1.871886551E-1,-4.513762891E-1,2.187814005E-2
1.636464195E2,2.714196406E-2,-2.803340256E-1,8.052120358E-2
1.637464831E2,-2.092628777E-1,2.889924049E-1,1.519924253E-1
1.638465571E2,-1.891043335E-1,-5.248126760E-2,1.562684923E-1
1.639466181E2,-9.808541089E-2,-7.630500942E-2,2.069703043E-1
1.640467006E2,-2.179567004E-3,-3.719637692E-1,2.338483781E-1
1.641468735E2,-1.310721338E-1,-1.880933493E-1,2.778306901E-1
1.642469468E2,-2.520234585E-1,-1.251742393E-1,-1.131230742E-1
1.643470073E2,8.334156871E-2,-6.666372530E-3,-1.051818281E-1
1.644470750E2,1.444280893E-1,6.602659076E-2,6.158437952E-2
1.645471470E2,1.761930883E-1,-3.232271224E-2,-2.462916970E-1
1.646472084E2,4.852224886E-2,1.662084907E-1,-5.936693773E-2
1.647472731E2,9.494800866E-2,8.801773936E-2,-1.619922966E-1
1.648473432E2,1.089979112E-1,-1.294502914E-1,-1.119013503E-1
1.649474101E2,1.987951100E-1,-4.831412733E-1,-4.348444194E-2
1.650474793E2,1.028892547E-1,-6.144772768E-1,4.692361504E-2
1.651475443E2,-1.658914536E-1,-3.023251593E-1,2.057485878E-1
1.652476135E2,-2.294214368E-1,-1.361698061E-1,2.527852058E-1
1.653476811E2,2.638937731E-4,-4.464893639E-1,1.642097533E-1
1.654477507E2,-1.555067450E-1,-4.562631845E-1,2.981938794E-2
1.655478142E2,-6.509868801E-2,-2.314647883E-1,8.662985265E-2
1.656478768E2,-1.396242529E-1,-1.477762461E-1,-4.348444194E-2
1.657479466E2,-7.365079969E-2,-3.090446889E-1,-6.364299357E-2
1.658480203E2,-9.380935878E-2,-3.762398362E-1,-2.053637356E-1
1.659480896E2,-5.899003521E-2,-9.524183720E-2,-2.835544646E-1
1.660481487E2,-4.982705787E-2,-9.109833278E-3,-2.297983468E-1
1.661482271E2,-1.035832018E-1,3.609419614E-2,-2.762240767E-1
1.662482823E2,-9.625281394E-2,-3.598790243E-2,-2.236896902E-1
1.663483550E2,-7.609426230E-2,-1.422784626E-1,-9.113193303E-2
1.664484233E2,2.073472142E-1,-4.898607731E-1,-1.235077903E-1
1.665484863E2,-9.869627655E-2,1.436064690E-1,2.493246458E-2
1.666485503E2,-1.823848188E-1,3.097618222E-1,2.540069222E-1
1.667486156E2,-4.310753942E-2,-2.865752019E-2,2.937131524E-1
1.668486894E2,1.083870381E-1,-4.495436847E-1,2.656133771E-1
1.669487527E2,1.749713570E-1,-3.249271512E-1,2.118572295E-1
1.670488210E2,-8.525723964E-2,-4.012853205E-1,-8.441241086E-2
1.671488877E2,4.791138321E-2,-1.746543050E-1,-7.219510525E-2
1.672489555E2,1.065544412E-1,-6.042251736E-2,-8.685587347E-2
1.673490208E2,-3.455542400E-2,-2.198583335E-1,-1.271729767E-1
1.674490900E2,-1.811630875E-1,-8.546798676E-2,-1.992550790E-1
1.675491629E2,-6.265522540E-2,-5.553559214E-2,-2.029202729E-1
1.676492196E2,-5.288138241E-2,-2.094736397E-1,-1.888703704E-1
1.677492880E2,9.800233692E-2,-1.783194989E-1,-5.631261319E-2
1.678493572E2,2.818727791E-1,-4.843630195E-1,-2.454762161E-2
1.679494258E2,1.792474091E-1,-2.070301622E-1,-2.454762161E-2
1.680494944E2,-3.063904643E-1,2.957119048E-1,6.402783841E-2
1.681495616E2,-3.399880230E-1,-6.666372530E-3,3.340302706E-1
1.682496261E2,-1.139679104E-1,-3.774615824E-1,2.136898190E-1
1.683496963E2,-9.442021698E-2,-4.605392516E-1,1.098427325E-1
1.684497585E2,-1.683349162E-1,-1.410567313E-1,-3.309973329E-2
1.685498394E2,-9.442021698E-2,9.473726153E-2,-1.485532671E-1
1.686498900E2,3.752667084E-2,1.741497368E-1,-3.126713634E-2
1.687499755E2,-7.303993404E-2,-5.577199627E-4,-3.371059895E-2
1.688500323E2,-2.666842043E-1,2.998554148E-2,-1.900921017E-1
1.689501084E2,-1.200765595E-1,4.953322932E-2,-2.591198683E-1
1.690501668E2,7.594276685E-3,1.845344603E-1,-3.128760159E-1
1.691502341E2,1.645866334E-1,1.546020508E-1,-6.425385922E-2
1.692502965E2,3.185246885E-1,-3.719637692E-1,-7.158424705E-2
1.693503671E2,2.024603039E-1,-3.139315844E-1,-4.999931902E-3
1.694504371E2,-1.096918508E-1,1.967517585E-1,1.055666804E-1
1.695505005E2,-2.178149968E-1,4.329202231E-3,2.362918407E-1
1.696505617E2,3.019629046E-2,-1.227307692E-1,2.106354982E-1
1.697506432E2,-4.921618849E-2,-2.094736397E-1,1.770379245E-1
1.698507073E2,-1.512306780E-1,-9.829615802E-2,-6.914078444E-2
1.699507743E2,9.800233692E-2,2.798294425E-1,6.952562928E-2
1.700508419E2,8.395243436E-2,2.963227928E-1,3.108174205E-1
1.701509023E2,4.058100283E-2,1.057328358E-1,4.142582789E-2
1.702509673E2,-2.691276968E-1,2.376797199E-1,-1.638248861E-1
1.703510345E2,1.736812107E-2,4.239936173E-1,-2.108615339E-1
1.704511101E2,2.464425862E-1,8.687035441E-1,1.638035290E-2
1.705511682E2,-6.393120289E-1,-1.392241418E-1,1.770379245E-1
1.706512337E2,7.668997645E-1,-6.920571923E-1,3.226284683E-2
1.707513198E2,8.028724045E-2,-4.654261768E-1,2.924914658E-1
1.708513771E2,3.105834424E-1,-1.386132687E-1,4.325842112E-2
1.709514405E2,-1.842174083E-1,-2.711710334E-1,2.692785561E-1
1.710515137E2,-2.306431681E-1,-5.430060625E-1,6.830389053E-2
1.711515803E2,1.377085745E-1,-4.061722457E-1,6.586043537E-2
1.712516602E2,-4.914826453E-1,-3.163750470E-1,-3.737578914E-2
1.713518414E2,2.287274897E-1,-2.082519084E-1,-7.097338140E-2
1.714519140E2,6.905416250E-1,4.342457652E-2,-2.554546893E-1
1.715519812E2,1.035001203E-1,9.779158980E-2,-2.872196734E-1
1.716520388E2,4.058100283E-2,1.741497368E-1,-2.603416145E-1
1.717521151E2,8.150897175E-2,4.649215937E-1,-2.902739942E-1
1.718521833E2,2.653109841E-2,4.258262217E-1,-2.493460178E-1
1.719522437E2,1.328216493E-1,2.089690566E-1,9.273850918E-2
1.720523222E2,1.755822152E-1,-2.381843030E-1,9.579282999E-2
1.721523852E2,3.874840587E-2,-1.263959557E-1,3.780125678E-1
1.722524515E2,-2.104846239E-1,1.936974376E-1,2.289614528E-1
1.723525125E2,-1.310721338E-1,-2.846100330E-1,3.914515972E-1
1.724525872E2,-9.686367959E-2,-5.112410784E-1,3.102065325E-1
1.725526563E2,-8.403550833E-2,-3.811267614E-1,1.684857905E-1
1.726527104E2,-2.416387498E-1,-2.870535254E-1,-2.699108049E-2
1.727527850E2,-1.090809852E-1,3.718336811E-3,-1.454989314E-1
1.728528507E2,1.614639163E-2,1.593564078E-2,-2.750023901E-1
1.729529216E2,-5.844758358E-3,1.802583933E-1,-2.554546893E-1
1.730529902E2,-2.478158101E-2,2.914358377E-1,-3.452518582E-1
1.731530504E2,-1.023614630E-1,3.244225681E-1,-1.357250959E-1
1.732531159E2,-1.439687237E-2,-1.086808667E-1,-1.945605734E-3
1.733531903E2,2.152884603E-1,-2.882752419E-1,-6.730818748E-2
1.734532527E2,1.688627005E-1,-1.661022007E-1,-9.479712695E-2
1.735533182E2,-4.860532656E-2,2.321819514E-1,2.248900384E-2
1.736533804E2,1.553552505E-2,5.314527516E-5,2.295723259E-1
1.737534560E2,1.065544412E-1,-2.943839133E-1,3.847320974E-1
1.738535318E2,-3.027937002E-2,-1.923694015E-1,2.106354982E-1
1.739535876E2,-8.831156790E-2,7.824389637E-2,-5.386915058E-2
1.740536565E2,1.157174259E-1,3.244225681E-1,7.991033792E-2
1.741537206E2,1.309890598E-1,4.953322932E-2,-9.968404472E-2
1.742537893E2,8.700676262E-2,5.991793796E-2,-4.959309474E-2
1.743538574E2,-1.684033312E-2,2.553948164E-1,-1.002949029E-1
1.744539277E2,-2.783590741E-2,8.190909028E-2,-2.084180564E-1
1.745539889E2,-1.261852086E-1,-9.096577764E-2,-4.409530759E-2
1.746540524E2,-5.960089713E-2,-3.395879269E-1,9.762542695E-2
1.747541312E2,-8.281378448E-2,-1.380023956E-1,1.104535982E-1
1.748541913E2,-1.035832018E-1,-1.888367720E-2,9.945802391E-2
1.749542600E2,-8.403550833E-2,-6.164424494E-2,2.143006921E-1
1.750543318E2,-2.355985157E-2,-2.528450489E-1,1.837574244E-1
1.751544003E2,-8.037031442E-2,-1.129569262E-1,2.570612431E-1
1.752544631E2,-2.905079722E-1,-1.460762043E-2,-9.275988676E-3
1.753545292E2,-3.089023381E-2,1.527694613E-1,-1.119013503E-1
1.754545957E2,1.517584622E-1,3.303986788E-2,-1.192317382E-1
1.755546709E2,4.363532737E-2,1.784258038E-1,-2.053637356E-1
1.756547303E2,4.119186476E-2,2.028604150E-1,-2.004768103E-1
1.757547982E2,2.286590822E-2,2.731099129E-1,-2.188027650E-1
1.758548847E2,1.810799986E-1,6.236140057E-2,-5.386915058E-2
1.759549300E2,3.160812259E-1,-4.153352380E-1,-6.791905314E-2
1.760549996E2,1.675725542E-2,-3.701311946E-1,6.891476363E-2
1.761550745E2,-1.012081560E-2,1.448282003E-1,1.562684923E-1
1.762551416E2,-3.211196512E-2,-5.431386083E-2,2.601155639E-1
1.763552219E2,1.517584622E-1,-2.235235274E-1,2.118572295E-1
1.764552773E2,-9.991800785E-2,-1.557174921E-1,1.202274412E-1
1.765553328E2,-1.329047233E-1,5.686361343E-2,-7.952549309E-2
1.766553999E2,-9.319848567E-2,2.217972279E-1,-1.131230742E-1
1.767554713E2,1.193826124E-1,2.498970330E-1,-1.668792218E-1
1.768555435E2,-3.577715531E-2,3.085401058E-1,-1.033492386E-1
1.769556010E2,6.135041639E-2,4.863018692E-1,-2.499568909E-1
1.770556736E2,2.347677201E-2,3.097618222E-1,-1.461098045E-1
1.771557352E2,-8.220291138E-2,-1.779450453E-3,3.287371621E-2
1.772558026E2,1.614639163E-2,-6.958549470E-2,1.458837837E-1
1.773558718E2,-2.068194300E-1,-1.399675570E-2,1.287795603E-1
1.774559490E2,-1.909369379E-1,-2.560319565E-2,2.576721311E-1
1.775560122E2,-6.632041931E-2,-5.064867064E-2,2.051377147E-1
1.776560700E2,1.542019397E-1,-2.778905332E-1,2.026942372E-1
1.777561432E2,6.073955074E-2,-1.202873066E-1,2.008616477E-1
1.778562077E2,-1.487872303E-1,3.365073353E-2,1.605445594E-1
1.779562695E2,6.379388273E-2,1.471391134E-2,7.929947227E-2
1.780563531E2,-4.623028450E-3,8.801773936E-2,-7.219510525E-2
1.781564058E2,1.485624351E-3,3.975938633E-2,1.088256482E-2
1.782564729E2,7.845464349E-2,2.754208259E-2,-1.424446106E-1
1.783565459E2,-8.953329176E-2,-1.251742393E-1,-2.016985416E-1
1.784566104E2,-2.135389447E-1,-1.325046122E-1,-2.120832503E-1
1.785566949E2,-1.622946747E-2,-4.788652062E-1,-2.210415900E-2
1.786585892E2,-5.593570694E-2,-3.957875371E-1,-2.444591075E-1
1.787586591E2,1.248804033E-1,1.295565814E-1,8.235380054E-2
1.788587294E2,-4.012163263E-3,1.039002389E-1,2.961566448E-1
1.789587975E2,4.424619302E-2,-7.263981551E-2,8.724072576E-2
1.790588704E2,8.150897175E-2,5.930707604E-2,5.486486107E-2
1.791589412E2,1.749713570E-1,5.075496063E-2,6.219524518E-2
1.792590023E2,1.981158182E-2,4.337674677E-1,-6.221662741E-3
1.793590763E2,-2.294898592E-2,2.963227928E-1,3.959323093E-2
1.794591332E2,5.585262924E-2,3.548333049E-2,-1.277838498E-1
1.795592030E2,3.141802177E-2,1.203936040E-1,-7.891462743E-2
1.796592608E2,-4.616186395E-2,1.625433117E-1,-1.045709699E-1
1.797593349E2,-1.677240431E-1,1.252805144E-1,-1.699335426E-1
1.798594040E2,-4.623028450E-3,-5.492473021E-2,2.981938794E-2
1.799594674E2,8.150897175E-2,-4.342720211E-1,1.440511942E-1
1.800595336E2,-1.109135821E-1,3.181813657E-2,1.483272463E-1
1.801596072E2,-1.359590590E-1,-2.926838771E-2,2.442330867E-1
1.802596762E2,-4.799446091E-2,-2.870535254E-1,2.136898190E-1
1.803597345E2,-1.610045284E-1,-3.524160981E-1,1.367208064E-1
1.804598056E2,-2.135389447E-1,-1.190655753E-1,5.608659238E-2
1.805598742E2,-2.966850251E-2,-2.743579075E-2,-1.027383730E-1
1.806599381E2,8.761762083E-2,3.451920152E-1,-1.088470221E-1
1.807600074E2,5.768522620E-2,2.896032631E-1,-1.222860590E-1
1.808600713E2,1.627540439E-1,2.309602052E-1,-1.998659521E-1
1.809601394E2,1.914647222E-1,1.381086856E-1,-2.041420043E-1
1.810602046E2,8.150897175E-2,1.326109022E-1,-1.424446106E-1
1.811602734E2,1.896321326E-1,-2.504016161E-1,1.576948725E-2
1.812603473E2,1.670301110E-1,-1.196764484E-1,-2.760194615E-2
1.813604106E2,-1.745119877E-2,6.663745642E-2,1.128970534E-1
1.814604735E2,-1.109135821E-1,1.521585882E-1,1.397751272E-1
1.815605412E2,-3.638802096E-2,-3.737963736E-1,2.986001074E-1
1.816606036E2,4.730051756E-2,-2.540667951E-1,2.845501900E-1
1.817606779E2,-3.308250606E-1,-5.309213325E-2,3.104111739E-2
1.818607526E2,-2.263671160E-1,-1.667130738E-1,-1.363359541E-1
1.819608081E2,4.058100283E-2,-5.187039822E-2,-8.135808259E-2
1.820608772E2,-1.134254597E-2,-5.431386083E-2,-1.943681687E-1
1.821609435E2,-1.103027165E-1,3.548333049E-2,-2.835544646E-1
1.822610185E2,-1.989465952E-2,3.256443143E-1,-2.792783976E-1
1.823610780E2,-3.577715531E-2,2.676121294E-1,-2.114723772E-1
1.824611460E2,1.560345292E-1,-1.581609547E-1,-4.653877020E-2
1.825612236E2,2.238405794E-1,-6.666372530E-3,4.875621200E-2
1.826612734E2,-1.164113730E-1,3.800113201E-1,1.348882169E-1
1.827613459E2,-2.336974889E-1,1.710954159E-1,2.992109656E-1
1.828614121E2,1.810799986E-1,-2.833883464E-1,2.967674732E-1
1.829614817E2,-4.738359526E-2,-4.251090586E-1,1.183948442E-1
1.830615475E2,1.083870381E-1,-9.720697999E-3,4.024471641E-1
1.831616146E2,-1.622946747E-2,-7.508328557E-2,-1.723770201E-1
1.832616814E2,2.519403696E-1,2.896032631E-1,3.043025173E-2
1.833617544E2,1.132739633E-1,4.403544217E-2,-6.791905314E-2
1.834618288E2,-1.164113730E-1,1.509368569E-1,-2.194136381E-1
1.835618844E2,-4.127494246E-2,2.132451236E-1,-1.717661470E-1
1.836619465E2,1.096087694E-1,3.609419614E-2,-1.900921017E-1
1.837620310E2,2.617142200E-1,-1.221199036E-1,-2.004768103E-1
1.838620936E2,1.493150145E-1,-2.210800797E-1,5.364312977E-2
1.839621588E2,-1.726109833E-1,6.358312815E-2,1.422186047E-1
1.840622247E2,-1.970455796E-1,1.442173421E-1,2.460656911E-1
1.841622919E2,-1.713892370E-1,-1.502197087E-1,3.230347037E-1
1.842623596E2,-9.686367959E-2,-1.905367970E-1,2.118572295E-1
1.843624200E2,1.858985052E-2,2.387689054E-2,1.434403211E-1
1.844624929E2,7.662204653E-2,3.059640713E-2,1.373316646E-1
1.845625645E2,7.784377784E-2,1.448282003E-1,-1.302273124E-1
1.846626156E2,-3.638802096E-2,1.112306193E-1,-1.057926938E-1
1.847626963E2,-2.294898592E-2,6.969177723E-2,-1.345033497E-1
1.848627642E2,1.126630977E-1,1.313891709E-1,-1.271729767E-1
1.849628245E2,-1.121353135E-1,2.572274208E-1,-8.441241086E-2
1.850628960E2,7.173512876E-2,-1.984780580E-1,-2.638021484E-2
1.851629598E2,1.981158182E-2,-2.937730551E-1,-7.708203048E-2
1.852630237E2,-1.127461791E-1,-6.408770382E-2,1.892552227E-1
1.853631062E2,-2.764580548E-1,-1.141786575E-1,2.252962589E-1
1.854631608E2,-6.632041931E-2,-2.754470706E-1,2.252962589E-1
1.855632250E2,7.295685261E-2,-3.395879269E-1,1.434403211E-1
1.856632930E2,7.845464349E-2,-3.078229427E-1,3.592804074E-2
1.857633579E2,-1.121353135E-1,-1.251742393E-1,-1.503858715E-1
1.858634400E2,3.411267102E-1,1.600998342E-1,-2.454762161E-2
1.859653904E2,1.542019397E-1,2.143342979E-2,-2.078071833E-1
1.860654588E2,1.114413664E-1,1.405521482E-1,-1.913138330E-1
1.861655267E2,5.646349862E-2,1.497151405E-1,-2.249114215E-1
1.862655918E2,-4.921618849E-2,6.113967299E-2,-1.839834452E-1
1.863656629E2,6.929166615E-2,-1.661022007E-1,-1.143448129E-1
1.864657260E2,6.868080050E-2,-3.310358226E-1,3.776063398E-2
1.865658007E2,-5.593570694E-2,5.258755386E-2,2.981938794E-2
1.866658611E2,-1.072483882E-1,1.020676419E-1,1.593228132E-1
1.867659259E2,-7.426166534E-2,-4.087482393E-2,2.283505797E-1
1.868660007E2,-2.361409664E-1,2.496606437E-3,2.674459517E-1
1.869660627E2,-1.243526191E-1,9.168293327E-2,2.411787510E-1
1.870661300E2,-1.378600672E-2,9.826988913E-3,6.463870406E-2
1.871662005E2,2.812618911E-1,1.668193489E-1,1.210429519E-2
1.872662628E2,9.189368039E-2,4.586803913E-2,-1.222860590E-1
1.873663318E2,-7.792685926E-2,8.801773936E-2,-2.218571007E-1
1.874664009E2,-4.371840134E-2,2.034712732E-1,-1.125122160E-1
1.875664720E2,-7.731599361E-2,1.002350450E-1,-1.595488489E-1
1.876665427E2,7.906551659E-2,-1.092917323E-1,-4.776049778E-2
1.877666038E2,1.125946827E-2,-3.273706436E-1,-4.999931902E-3
1.878666725E2,-9.014416486E-2,-1.856498867E-1,1.434403211E-1
1.879667384E2,-1.353481859E-1,1.698736846E-1,2.167441547E-1
1.880668006E2,1.224369407E-1,-1.673239321E-1,1.910878122E-1
1.881668884E2,1.389302909E-1,-4.263308048E-1,1.171731204E-1
1.882669383E2,-4.623028450E-3,-6.897462159E-2,4.081496224E-2
1.883670072E2,-2.172725461E-2,8.374168724E-2,-4.592790082E-2
1.884670685E2,2.543838322E-1,1.649867594E-1,-5.814520642E-2
1.885671359E2,9.250454605E-2,1.228370592E-1,-2.401830405E-1
1.886671968E2,-2.790432423E-3,2.889924049E-1,-1.992550790E-1
1.887672705E2,-1.622946747E-2,2.792185545E-1,-1.907029748E-1
1.888673403E2,6.623734534E-2,4.464630783E-2,-5.814520642E-2
1.889674050E2,2.146776021E-1,-2.626188993E-1,7.013648748E-2
1.890674721E2,5.340916663E-2,-2.387951612E-1,1.526032984E-1
1.891675403E2,-1.628371328E-1,1.924756914E-1,1.440511942E-1
1.892676176E2,-1.842174083E-1,-1.654913276E-1,2.876045108E-1
1.893676726E2,8.822849393E-2,-3.389770389E-1,2.045268416E-1
1.894677431E2,-2.599647045E-1,-2.552885413E-1,3.653890640E-2
1.895678058E2,-4.126810133E-1,2.143342979E-2,-7.443393115E-3
1.896678674E2,2.317818105E-1,2.437883765E-1,7.868860662E-2
1.897679436E2,2.225504257E-2,2.560056746E-1,-1.485532671E-1
1.898680099E2,-4.799446091E-2,5.930707604E-2,-2.638021484E-2
1.899680749E2,-1.073168125E-2,1.735388786E-1,-2.285766155E-1
1.900681441E2,-4.555099830E-2,2.248515636E-1,-1.949790120E-1
1.901682096E2,3.673939109E-1,3.107471392E-3,-1.729878634E-1
1.902683011E2,2.299492210E-1,-4.251090586E-1,3.043025173E-2
1.903683555E2,4.539950285E-3,-9.585270286E-2,-5.570174754E-2
1.904684125E2,4.425303340E-1,1.998060793E-1,2.662242353E-1
1.905684794E2,-7.120733708E-2,-4.454001784E-2,2.839393318E-1
1.906685425E2,3.441810310E-1,-2.192474753E-1,3.114282489E-1
1.907686141E2,-2.312540263E-1,-2.791122794E-1,-6.364299357E-2
1.908686798E2,-2.110954672E-1,2.944902182E-1,-1.599550620E-2
1.909687459E2,1.798582822E-1,-4.698347673E-2,-7.708203048E-2
1.910688162E2,2.366687506E-1,-2.438146435E-2,-4.348444194E-2
1.911688906E2,1.108305082E-1,5.314527516E-5,-1.962007582E-1
1.912689474E2,-4.982705787E-2,1.717062891E-1,-1.320599020E-1
1.913690153E2,-1.377916634E-1,2.437883765E-1,-2.432373762E-1
1.914690858E2,-3.100556731E-1,2.334036678E-1,-9.174279869E-2
1.915691548E2,-1.256427635E-2,-2.980490923E-1,-2.821280994E-2
1.916692120E2,-2.373626828E-1,-3.744072616E-1,2.491200119E-1
1.917692819E2,-1.591719389E-1,1.491042674E-1,1.971964538E-1
1.918693528E2,3.386148065E-2,-8.119193465E-2,3.260890245E-1
1.919694235E2,9.983493388E-2,-9.585270286E-2,2.430113554E-1
1.920694935E2,1.761930883E-1,-1.599935442E-1,2.796632648E-1
1.921695516E2,-1.713892370E-1,-2.265778631E-1,3.287371621E-2
1.922696278E2,9.067194909E-2,2.712773085E-1,3.712930679E-1
1.923696857E2,-2.422496080E-1,-1.746543050E-1,-1.723770201E-1
1.924697581E2,-2.966850251E-2,-1.581609547E-1,-4.130579233E-1
1.925698231E2,3.936611116E-1,2.456209660E-1,1.699121669E-2
1.926698832E2,2.934792042E-1,4.478173852E-1,-1.619922966E-1
1.927699592E2,-1.025989771E0,-3.884571493E-1,1.916986704E-1
1.928700213E2,4.669649303E-1,-6.450205445E-1,-2.859979570E-1
1.929700885E2,-5.831124187E-1,-7.024418712E-1,3.474693000E-1
1.930701564E2,8.768555522E-1,3.677940369E-1,-4.558184743E-1
1.931706240E2,-8.787711859E-1,4.435413182E-1,5.716568828E-1
1.932706940E2,-5.012564659E-1,2.981553972E-1,2.472874075E-1
1.933707592E2,8.395243436E-2,-1.092917323E-1,7.828238420E-3
1.934708277E2,-5.165965110E-2,6.029770970E-1,3.297542036E-1
1.935708943E2,2.348361462E-1,4.184958637E-1,1.562684923E-1
1.936709546E2,-1.713892370E-1,4.032242000E-1,1.342773438E-1
1.937710359E2,2.024603039E-1,-4.148568958E-2,-1.294117980E-2
1.938710934E2,1.041109860E-1,-1.037939489E-1,-7.708203048E-2
1.939711635E2,1.248119865E-2,-1.783194989E-1,-2.023093998E-1
1.940712281E2,-1.347373128E-1,-5.491147041E-1,-1.247295216E-1
1.941713010E2,-1.096918508E-1,-6.004273891E-1,-1.119013503E-1
1.942713629E2,-1.561176181E-1,-2.223018110E-1,-6.832527462E-3
1.943714304E2,-1.121353135E-1,2.761642337E-1,-3.187800199E-2
1.944714965E2,9.189368039E-2,-1.215090379E-1,4.448015243E-2
1.945715646E2,1.736812107E-2,-5.370299518E-2,1.733727306E-1
1.946716239E2,-9.136588871E-2,2.387689054E-2,1.080101430E-1
1.947717015E2,-4.494013637E-2,1.014567763E-1,1.238926351E-1
1.948717756E2,-2.966850251E-2,2.242406905E-1,-2.638021484E-2
1.949718332E2,-1.867293008E-2,4.464630783E-2,-6.975165009E-2
1.950718996E2,5.890695751E-2,8.313082159E-2,-1.784856617E-1
1.951719703E2,-2.417071536E-2,-3.354444355E-2,-2.145267129E-1
1.952720363E2,9.800233692E-2,-1.532740295E-1,-1.613814384E-1
1.953721033E2,1.590888500E-1,-1.599935442E-1,-1.564945132E-1
1.954721691E2,1.523693353E-1,-4.026396200E-2,-1.966069825E-2
1.955722372E2,-8.288219571E-3,1.955300272E-1,-5.814520642E-2
1.956723031E2,-4.432927072E-2,6.451268196E-1,3.776063398E-2
1.957723672E2,-1.212982833E-1,1.423847526E-1,4.281035066E-1
1.958724361E2,-8.098118752E-2,-1.850390136E-1,3.065413535E-1
1.959725055E2,-3.503727317E-1,-5.370299518E-2,1.342773438E-1
1.960725751E2,-4.371840134E-2,8.801773936E-2,1.868117452E-1
1.961726407E2,-1.799413562E-1,6.724832207E-2,-7.586029917E-2
1.962727073E2,3.930502236E-1,1.772040725E-1,-9.540799260E-2
1.963727722E2,4.003806114E-1,3.005988598E-1,7.991033792E-2
1.964728468E2,-1.500089616E-1,2.914358377E-1,1.719585620E-3
1.965729108E2,5.218743905E-2,5.747447908E-2,-1.845943183E-1
1.966729658E2,6.318301708E-2,1.124523431E-1,-4.531703889E-2
1.967730417E2,-3.027937002E-2,-2.015323788E-1,-4.898223281E-2
1.968731082E2,1.682518274E-1,-2.766688168E-1,-1.171945035E-2
1.969731751E2,3.325061873E-2,-1.111243293E-1,1.440511942E-1
1.970732464E2,3.935926780E-2,-1.441110522E-1,5.486486107E-2
1.971733113E2,-8.953329176E-2,-1.862607598E-1,3.053196073E-1
1.972733765E2,-1.439003050E-1,-1.312828809E-1,1.880334914E-1
1.973734447E2,2.104015350E-1,-2.522342205E-1,1.251143664E-1
1.974735175E2,-2.465256602E-1,-1.190655753E-1,-1.467206776E-1
1.975735876E2,9.494800866E-2,1.283348501E-1,-3.859752044E-2
1.976736417E2,7.662204653E-2,1.288131531E-2,-9.235365689E-2
1.977737269E2,-2.196476012E-1,1.374978125E-1,-1.491641253E-1
1.978737819E2,1.334325075E-1,2.230189741E-1,-1.790965199E-1
1.979738489E2,-3.015035391E-1,2.236298174E-1,-1.546619087E-1
1.980739238E2,-2.123172134E-1,-1.111243293E-1,-1.039600968E-1
1.981739864E2,2.702663243E-1,-1.624370068E-1,-1.173991412E-1
1.982740546E2,1.749713570E-1,-3.293357790E-2,5.995642394E-3
1.983741332E2,-2.050552331E-2,1.698736846E-1,5.364312977E-2
1.984741879E2,-5.227051675E-2,1.521585882E-1,3.975602686E-1
