"Time (s)","Linear Acceleration x (m/s^2)","Linear Acceleration y (m/s^2)","Linear Acceleration z (m/s^2)"
0.000000000E0,2.274048328E-1,3.204774857E-1,4.909247160E-2
1.000665330E-1,6.107529402E-1,2.287139893E-1,-2.153019905E-1
2.001360830E-1,1.059209108E0,1.535720825E-1,-6.840610504E-1
3.002033800E-1,-3.251730800E-1,-3.865470886E-1,4.398545027E-1
4.002735430E-1,5.526638031E-2,9.488372803E-1,1.492421627E-1
5.003410410E-1,-3.775371313E-1,-3.762636185E-1,8.697210550E-1
6.004078390E-1,-3.316087127E-1,-5.861282349E-3,3.139216304E-1
7.004714020E-1,-1.207780838E-2,-2.241125107E-1,4.281729460E-1
8.005358650E-1,-2.634433508E-1,7.028141022E-1,7.316037416E-1
9.006030290E-1,1.758165359E-1,1.608304977E-1,-3.094961643E-1
1.000669427E0,-1.486667395E-1,4.198074341E-3,-8.235509992E-1
1.100735055E0,-5.366649628E-1,-5.188817978E-1,-7.517236471E-2
1.200801787E0,-2.887642384E-2,4.358282089E-1,-2.714961767E-1
1.300874552E0,-4.891952276E-1,2.417011261E-1,-5.299626589E-1
1.400948449E0,-3.358979225E-1,-2.957057953E-2,1.269168854E-1
1.501016347E0,-2.837580442E-1,-5.007057190E-1,-1.097139716E-1
1.601083344E0,-5.206199884E-1,-2.005815506E-1,-2.309026718E-1
1.701146041E0,2.490675449E-2,8.396253586E-1,2.744521499E-1
1.801219172E0,-6.311278343E-1,-1.669473648E-1,1.188474298E-1
1.901282136E0,-9.862658978E-1,6.105470657E-1,9.992206097E-1
2.001348201E0,3.904056549E-2,5.445213318E-1,-3.321633935E-1
2.101414465E0,-4.700969458E-1,8.517341614E-1,-4.211920500E-2
2.201487528E0,-4.511387348E-1,-4.075021744E-1,5.164765716E-1
2.301554626E0,-8.272430897E-1,1.120949745E0,1.375615597E-1
2.401615857E0,-1.134286642E0,5.332098007E-1,-9.348976612E-1
2.501677022E0,-2.169749737E-1,8.810415268E-1,-1.172315240E0
2.601745852E0,-1.039206505E0,-6.585807800E-1,-3.955395222E-1
2.701813316E0,-2.044141293E-1,1.158823967E0,1.158409119E-1
2.801880080E0,-2.830131054E-1,-3.521232605E-1,-8.156899214E-1
2.901945878E0,-3.204551339E-1,-2.460880280E-1,-7.707198858E-1
3.002014476E0,-4.092352986E-1,-8.202171326E-2,-2.227536440E-1
3.102082039E0,-9.939385653E-1,1.232896805E0,-4.653341770E-1
3.202153904E0,-2.063526511E-1,-1.054032326E0,-1.858848333E-1
3.302218335E0,7.129436731E-1,1.150482178E0,9.500751495E-1
3.402291366E0,-2.007068396E-1,3.609867096E-1,-3.210268021E-1
3.502353797E0,-1.156842709E-1,9.925527573E-1,1.850679398E0
3.602421794E0,6.042999029E-1,-7.334613800E-1,-1.093790412E0
3.702483757E0,-9.127672911E-1,-2.210442543E0,1.591281891E-1
3.802558789E0,2.459660053E0,2.603067398E0,-6.802393198E-1
3.902626387E0,-4.520081282E-1,1.274272919E0,1.334033012E-1
4.002693219E0,5.926556587E-1,6.059818268E-1,-5.622216463E-1
4.102753018E0,8.625861406E-1,-1.020017624E0,-9.223557711E-1
4.202820883E0,2.039519548E-1,2.938871384E-1,-2.690790892E-1
4.302887749E0,5.771614313E-1,3.633117676E-2,2.854783535E-1
4.403039092E0,4.455260038E-1,-2.336883545E-1,2.046978474E-1
4.503109057E0,1.742193699E-1,3.253927231E-1,-1.606681347E-1
4.603176654E0,2.555227280E-1,-8.141326904E-2,3.146551847E-1
4.703248019E0,6.555802822E-1,8.977651596E-1,-3.567436934E-1
4.803311650E0,-5.972634554E-1,-1.047469139E0,-1.493333578E-1
4.903378448E0,1.198283195E0,1.902155876E0,2.350161076E-1
5.003442546E0,-1.265749335E-1,3.092889786E-1,-1.377243996E0
5.103509644E0,-3.791801035E-1,-2.995204926E-2,-1.183247566E-1
5.203576842E0,3.962394595E-1,3.412561417E-1,4.976007938E-1
5.303641072E0,-2.575651407E-1,-1.045759201E0,-6.044071913E-1
5.403708204E0,-9.163774252E-1,6.332798004E-1,2.461724281E-1
5.503775269E0,-1.710891724E-1,4.545154572E-1,8.345389366E-2
5.603843832E0,-1.352566481E-1,-3.178215027E-2,1.919927597E-1
5.703910897E0,-1.434884429E0,-1.010161400E0,-1.264812946E-1
5.803978062E0,2.340829372E-2,1.983420372E0,-1.953277588E-1
5.904045560E0,-8.276340961E-1,-6.899147034E-1,-4.210184216E-1
6.004112657E0,6.182599068E-2,6.784496307E-1,-3.890964389E-1
6.104179722E0,-6.071381569E-1,-1.147193909E-1,-5.528120995E-1
6.204246619E0,-3.924615383E-1,9.852972031E-1,6.204458475E-1
6.304312782E0,8.243041039E-1,-1.588199615E0,1.894232035E-1
6.404380079E0,8.425537348E-1,4.628524780E-1,-4.636514187E-2
6.504451644E0,8.477811813E-1,-3.589630127E-3,3.894885778E-1
6.604519809E0,2.369928360E-1,5.650711060E-2,-4.048954248E-1
6.704590440E0,1.232761264E0,7.762079239E-1,-6.644816399E-1
6.804653238E0,7.764756680E-1,6.140861511E-1,-4.946904182E-1
6.904722836E0,1.508941650E-1,-7.455921173E-1,-1.918463707E-1
7.004787767E0,-5.609420538E-1,2.869806290E-1,-1.614247203E0
7.104854831E0,-2.636674047E-1,1.680126190E-1,4.117770195E-1
7.204919128E0,1.636546850E-2,-2.237253189E-1,-8.039409518E-1
7.304987825E0,-7.049832344E-1,-4.892768860E-1,-8.097529411E-3
7.405054621E0,1.835069656E-1,7.958126068E-1,-1.812131405E-1
7.505122052E0,-3.215663433E-1,-3.088331223E-1,7.429018021E-1
7.605188416E0,-8.296582699E-1,-6.362762451E-1,-1.663426161E-1
7.705256679E0,-3.844344616E-2,5.850963593E-1,6.797792912E-1
7.805323910E0,-1.255927086E-1,-4.990863800E-2,-2.031713724E-1
7.905389341E0,2.059526443E-1,-5.432033539E-2,4.359701872E-1
8.005455906E0,6.518708467E-1,1.322892189E0,-5.624248981E-1
8.105528137E0,-2.956527472E-1,-3.203239441E-1,-5.928694606E-1
8.205595400E0,-4.450706244E-1,3.748807907E-1,-7.837330103E-1
8.305668763E0,-3.601431847E-2,-9.504461288E-1,2.078887224E-1
8.405731327E0,-2.367782593E-2,8.128471375E-1,-1.793775558E-1
8.505802659E0,9.227037430E-2,-6.586647034E-2,-3.484454155E-1
8.605867889E0,-1.463962793E-1,-1.216058731E-1,3.589414954E-1
8.705937085E0,4.127951860E-1,3.294887543E-1,2.919716835E-1
8.806000449E0,-1.544958353E-1,-1.293163300E-1,1.699802876E-1
8.906067047E0,-4.356545210E-1,7.329683304E-1,1.006257534E-1
9.006131345E0,-5.358290672E-2,-4.649868011E-1,-1.594052315E-1
9.106203776E0,-5.641758442E-1,7.321071625E-2,-7.524210811E-1
9.206267907E0,4.940696359E-1,2.780284882E-1,3.020632267E-2
9.306335970E0,-1.749317646E-1,3.460121155E-2,-6.884491444E-2
9.406396333E0,-9.467601776E-3,-6.542243958E-1,1.617436409E-1
9.506468964E0,5.764901638E-3,9.047136307E-1,1.930307150E-1
9.606534727E0,7.322418690E-1,-2.498054504E-2,4.240983725E-1
9.706602024E0,2.470673323E-1,-4.869174957E-2,2.713696957E-1
9.806663255E0,-7.624551058E-1,-6.804285049E-1,3.945691586E-1
9.906731187E0,9.271147251E-1,1.703993797E0,5.254430771E-1
1.000679805E1,3.863024712E-1,5.583992004E-1,-1.391527653E-1
1.010686438E1,1.038479805E-1,-1.528131485E0,-1.033462286E-1
1.020693085E1,-4.301352501E-1,3.272495270E-1,-8.752003312E-1
1.030699698E1,-3.676576614E-1,1.010951042E0,-2.270098925E-1
1.040706438E1,-3.962657452E-1,-9.365816116E-1,-1.631782651E-1
1.050713151E1,1.809421778E-1,2.956485748E-2,1.705572605E-1
1.060720477E1,5.181717873E-1,4.320821762E-1,-2.700092196E-1
1.070727193E1,-8.738726974E-1,4.323291779E-2,-1.590646505E-1
1.080733937E1,3.705446720E-1,8.118114471E-1,-1.907484531E-1
1.090740713E1,-2.235972285E-1,-1.063808441E0,1.299040318E-1
1.100747409E1,-1.150765896E0,8.562202454E-1,-5.162839890E-1
1.110754156E1,-1.134592295E-1,8.208236694E-1,-6.845856905E-1
1.120760652E1,2.582130432E-1,-9.411334991E-1,2.347524166E-1
1.130767928E1,-1.548801064E-1,1.351895332E0,3.712612391E-1
1.140776175E1,-1.879183054E-1,-3.493833542E-1,1.450068951E-1
1.150782551E1,1.174286008E-1,-3.684139252E-2,-8.689504862E-2
1.160788818E1,-2.983437181E-1,-7.728500366E-1,-8.324630260E-1
1.170794424E1,-3.152011037E-1,1.091864586E0,-1.432936192E-1
1.180810923E1,4.664090872E-1,4.643793106E-1,-4.604237080E-1
1.190817549E1,-1.101136208E-2,9.037590027E-2,7.487707138E-1
1.200823816E1,-1.137810946E-1,-6.015329361E-1,-1.308102608E-1
1.210830558E1,7.504510880E-2,4.778900146E-1,9.190416336E-1
1.220837235E1,-5.725312233E-2,-1.799570560E0,-4.880297184E-2
1.230843965E1,-2.490248680E-1,-8.009433746E-2,-2.341986895E-1
1.240850674E1,4.828652143E-1,7.509870529E-1,1.225366592E-1
1.250857488E1,-1.497817039E-1,-1.391951561E0,2.638417482E-1
1.260864911E1,6.831109524E-1,1.748905182E-1,6.932210922E-1
1.270871444E1,-2.676965594E-1,7.070665359E-1,2.197344303E-1
1.280878080E1,-2.186572552E-1,-8.770046234E-1,6.694101095E-1
1.290884080E1,5.628982782E-1,-5.129518509E-1,-7.096207142E-2
1.300891096E1,2.659498453E-1,4.524145126E-1,1.084495783E-1
1.310898016E1,2.469468713E-1,-9.258537292E-1,2.466026545E-1
1.320904736E1,-7.430696487E-2,3.373317719E-1,1.589398384E-1
1.330911399E1,6.717283726E-1,9.402465820E-1,-1.794363260E-1
1.340918118E1,4.546610117E-1,-5.076169968E-1,-7.340745330E-1
1.350924895E1,1.249065995E-1,-4.764127731E-1,9.519314766E-2
1.360931541E1,9.686598778E-1,-9.182672501E-1,1.740257740E-1
1.370937861E1,4.658225775E-1,1.831680298E0,-2.067438364E-1
1.380944804E1,3.586103916E-1,-8.160552979E-1,6.079130173E-1
1.390951507E1,5.215479136E-1,-5.502157211E-1,4.314254522E-1
1.400958963E1,9.344136715E-1,6.738977432E-1,2.181601524E-2
1.410965350E1,-3.618029356E-1,-8.894701004E-1,-1.004809737E0
1.420972076E1,1.006600738E0,-1.827781200E0,6.742831469E-1
1.430978246E1,3.255037069E-1,8.527536392E-1,1.514041424E-2
1.440984992E1,7.782818079E-1,3.139745712E0,1.813196301E0
1.450991699E1,-3.158761859E-1,-1.173346519E0,-1.044327497E0
1.460998638E1,4.127935171E-1,-1.718975067E0,-1.565314651E0
1.471005115E1,1.473327994E0,3.095390320E0,-4.349724054E-1
1.481011825E1,-5.715175867E-1,-1.513957024E0,-1.695364714E-1
1.491018284E1,-8.242226839E-1,4.030466080E-1,-2.266057730E-1
1.501025204E1,1.087000847E0,1.101949692E0,1.331637502E0
1.511031914E1,-9.469962120E-1,-5.836229324E-1,-1.145746946E0
1.521038650E1,6.444299221E-2,-3.743610382E-1,-7.190970778E-1
1.531045690E1,8.428192139E-2,3.279638290E-1,9.431898594E-1
1.541053130E1,-4.956849217E-1,2.680006027E-1,6.088653803E-1
1.551059866E1,2.986828089E-1,4.064311981E-1,-1.067087412E0
1.561066259E1,-1.047683358E0,-7.921171188E-1,3.239560127E-2
1.571072079E1,-6.522414684E-1,2.333545685E-2,-4.268421531E-1
1.581078742E1,4.878407717E-1,1.788339615E-1,1.179984808E-1
1.591085908E1,1.763017178E-1,1.075537682E0,-8.784510493E-1
1.601092995E1,-5.795867443E-1,-1.630891323E0,-5.121336579E-1
1.611099801E1,3.301718235E-1,2.151659966E0,-5.971096158E-1
1.621106628E1,-1.192053795E0,-1.658090591E0,-1.374787092E-1
1.631113167E1,-2.239198685E-1,1.447236061E0,-5.565019250E-1
1.641120027E1,-4.422070980E-1,-1.163330078E-1,-7.455583215E-1
1.651126233E1,-6.752945185E-1,-1.316576958E0,4.617658257E-1
1.661133286E1,2.315703630E-1,9.785900116E-1,-3.146491051E-1
1.671139956E1,-5.509623885E-1,5.868062973E-1,4.046191573E-1
1.681146569E1,-4.899540544E-1,-8.636522293E-1,2.235218287E-1
1.691153392E1,1.015115142E0,4.832934380E0,1.484682441E0
1.701160572E1,7.514393330E-1,-2.067230225E0,1.609905958E0
1.711167508E1,-1.636129498E0,-2.007788181E0,-1.334296465E-1
1.721173688E1,1.216545343E0,2.600255966E0,5.403614044E-2
1.731180031E1,1.224809885E-1,1.321103096E0,-1.496363997E0
1.741186628E1,-8.760036230E-1,-2.347565174E0,-2.469937801E-1
1.751193431E1,1.048018932E0,1.637053490E0,-2.689217329E-1
1.761199871E1,7.808718681E-1,3.540004730E0,-2.927093506E-1
1.771206277E1,-1.026918054E0,-2.778246403E0,-1.256701708E0
1.781212874E1,-5.410579443E-1,-7.239217758E-1,-1.697325110E0
1.791219590E1,3.876711130E-1,1.065301895E0,4.287167788E-1
1.801226577E1,-3.095734119E-2,7.588539124E-1,-6.931201816E-1
1.811233620E1,-2.611882687E-1,-1.477440834E0,7.729556561E-1
1.821240633E1,3.494806290E-1,9.932012558E-1,9.120821953E-2
1.831247313E1,-6.165766716E-2,4.498176575E-1,-3.103418946E-1
1.841254432E1,-9.817478061E-1,-8.073015213E-1,8.578979969E-2
1.851260796E1,-4.161844254E-1,6.566410065E-1,2.887873650E-1
1.861267942E1,-8.178030849E-1,-3.549213409E-1,2.819440365E-1
1.871273792E1,-6.230633855E-1,7.876482010E-1,-5.576372147E-3
1.881280535E1,-6.987879276E-1,-5.358219147E-2,2.497619390E-1
1.891286875E1,-6.491705179E-1,-1.326532364E-1,-3.331062794E-1
1.901294948E1,-4.691882133E-1,1.313391685E0,2.055660486E-1
1.911301691E1,-4.853845835E-1,-1.640743256E0,5.822972655E-1
1.921308361E1,-4.256325960E-1,6.943683624E-1,7.922093868E-1
1.931315244E1,5.358338356E-2,5.485229492E-1,-3.617597818E-1
1.941321958E1,1.228493452E-1,2.009277344E-1,-1.529465914E-1
1.951329331E1,-7.516551018E-2,1.536502838E-1,-7.926136255E-1
1.961335880E1,-4.717544317E-1,-1.139364243E0,3.539305925E-2
1.971342377E1,9.845906496E-1,1.289915085E0,-2.285752892E-1
1.981348360E1,-2.302646637E-1,3.347616196E-1,-3.739598989E-1
1.991355773E1,-5.145013332E-1,-8.970861435E-1,1.753736138E-1
2.001362769E1,6.636223793E-1,8.648681641E-2,9.841387272E-1
2.011369576E1,5.131734610E-1,6.866445541E-1,-2.401748896E-1
2.021375765E1,-3.182423115E-2,-9.099483490E-2,4.302927256E-1
2.031383485E1,-3.782712817E-1,-1.905241013E-1,-8.118867874E-2
2.041390292E1,-5.380741358E-1,7.245063782E-2,7.797112465E-1
2.051396785E1,-2.939462066E-1,1.178475380E0,-2.711040378E-1
2.061402404E1,-3.403278589E-1,-6.349334717E-1,-9.098521471E-1
2.071408798E1,-1.242831349E-1,5.632305145E-2,2.141063809E-1
2.081415534E1,-5.401157141E-1,-2.968425751E-1,-8.343640566E-1
2.091422530E1,-1.333311796E-1,-5.112972260E-1,-1.488718390E-1
2.101429463E1,-2.233501077E-1,1.383855820E0,-5.171840191E-1
2.111436143E1,-5.880670547E-1,-8.235549927E-2,1.471306682E-1
2.121442603E1,1.857292652E-2,1.961371422E0,-1.598953485E0
2.131449316E1,9.197711945E-3,-1.178795815E0,4.692164660E-1
2.141456119E1,-5.932612419E-1,-1.192407608E-1,-1.260589063E-1
2.151463165E1,9.094990492E-1,1.677581787E0,-5.476320982E-1
2.161469885E1,-6.263303161E-1,-2.263460159E-1,-3.996799290E-1
2.171476368E1,-7.062661648E-1,-1.378475189E0,8.719694614E-2
2.181482741E1,1.202284694E0,8.868818283E-1,-4.520713389E-1
2.191489474E1,-1.305278540E-1,4.516420364E-1,-1.509889483E0
2.201497054E1,-3.805409074E-1,-9.895744324E-1,-1.122617960E0
2.211503774E1,5.069220066E-1,1.051019669E0,-5.558820367E-1
2.221510444E1,2.138963938E-1,1.030941010E-1,-4.836916924E-2
2.231516470E1,3.340336084E-1,-8.931064606E-2,-4.966321290E-1
2.241523790E1,2.446348667E-1,6.769180298E-2,-6.052451134E-1
2.251531337E1,-2.464585304E-1,9.926757812E-1,-2.503184676E-1
2.261538086E1,-1.934059858E-1,-2.620563507E-1,-1.253314614E-1
2.271543946E1,3.016192913E-1,-1.232833862E-1,7.533924580E-1
2.281549823E1,2.918885946E-1,1.023172379E0,-7.475526333E-1
2.291556609E1,-4.950437546E-1,-6.541881561E-1,-7.155752182E-2
2.301563632E1,-2.199442387E-1,3.186540604E-1,6.272913218E-1
2.311570375E1,-5.842614174E-2,9.141826630E-2,-6.026105285E-1
2.321577062E1,-6.256222725E-2,-2.686824799E-1,1.414824724E-1
2.331583821E1,-2.356282473E-1,4.785633087E-1,5.884947181E-1
2.341591408E1,1.887258291E-1,4.906291962E-1,-3.564203382E-1
2.351598070E1,-3.445781469E-1,-3.725852966E-1,2.273646593E-1
2.361605297E1,-1.556366682E-1,1.498889923E-1,-5.150514841E-2
2.371610980E1,2.632522583E-1,1.934928894E-1,8.478202820E-1
2.381617656E1,1.717112064E-1,1.730194092E-1,8.279095888E-1
2.391623776E1,-3.785710335E-1,-8.719835281E-1,8.324719667E-1
2.401630632E1,4.117063284E-1,2.216157913E-1,1.187576294E0
2.411637378E1,4.051601887E-2,-4.208135605E-1,6.709527969E-1
2.421643998E1,7.135093212E-1,2.202768326E0,-7.722462416E-1
2.431651008E1,-6.624538898E-1,-1.639725685E0,6.117774248E-1
2.441657731E1,9.824241400E-1,2.070733070E0,-5.670559406E-1
2.451665094E1,-9.000437856E-1,-1.213733673E0,-1.168413997E0
2.461671727E1,1.724009514E-1,-1.281309128E-1,7.332530022E-1
2.471678171E1,1.142704487E-2,-4.007291794E-1,3.647339344E-1
2.481684274E1,7.198320627E-1,1.399175644E0,1.983919144E0
2.491691510E1,6.585109234E-2,1.356716156E-1,-5.745603442E-1
2.501698660E1,1.987674236E-1,-5.327491760E-1,-2.014940977E-1
2.511705320E1,2.186490297E-1,1.898728371E0,6.713287830E-1
2.521711303E1,-2.317353487E-1,-7.480621338E-3,-5.167521238E-1
2.531717856E1,-7.328566313E-1,-1.134906769E0,-2.803671360E-2
2.541724646E1,-3.049191833E-1,2.490482330E-1,4.461455345E-1
2.551731312E1,-1.238287687E-1,1.494770050E-1,6.242783666E-1
2.561738055E1,6.148257256E-1,-5.748462677E-1,7.311124802E-1
2.571744549E1,-3.517161608E-1,4.281301498E-1,1.152233243E0
2.581751275E1,-3.679329157E-1,3.253459930E-1,6.074395180E-1
2.591757994E1,-2.219730020E-1,8.862209320E-2,-2.779548466E-1
2.601765034E1,-2.182746530E-1,-2.903852463E-1,-3.470574021E-1
2.611772764E1,-8.316195011E-1,3.232288361E-2,-5.481956005E-1
2.621792390E1,-6.407642365E-2,3.599643707E-1,-2.066775858E-1
2.631799070E1,-1.237308979E-1,7.580289841E-1,9.682900906E-1
2.641804850E1,-2.883586884E-1,-8.524045944E-1,9.451632500E-1
2.651811546E1,5.176055431E-2,-3.323612213E-1,-5.015234947E-1
2.661818263E1,-2.602072954E-1,-2.973842621E-2,-4.108551741E-1
2.671824689E1,6.125084162E-1,-8.530569077E-1,1.645281911E-1
2.681831419E1,8.506748676E-1,8.201274872E-1,1.261391401E0
2.691838132E1,3.735922575E-1,-3.645668030E-1,-5.252485871E-1
2.701845108E1,3.885918856E-1,-3.923826218E-1,1.945406199E-1
2.711851852E1,1.720721722E-1,5.351037979E-1,-2.477990985E-1
2.721858495E1,-4.403686523E-2,5.339956284E-1,2.406958342E-1
2.731865288E1,-1.621266603E-1,-1.510027885E0,-2.101640940E0
2.741872001E1,-1.416919231E-1,-3.730897903E-1,9.476369619E-2
2.751878711E1,7.225947380E-1,6.644735336E-1,4.872512817E-2
2.761885327E1,-9.889050722E-1,-1.122898102E0,-1.387109756E-1
2.771891870E1,3.879178762E-1,2.309493065E0,-8.505358696E-1
2.781898603E1,-1.223243475E0,-8.350954056E-1,-5.562478304E-1
2.791906303E1,-6.585270762E-1,2.661981583E-1,1.100845933E0
2.801913212E1,5.060728788E-1,6.713476181E-1,-2.853950262E-1
2.811919946E1,-6.323919296E-1,-2.273578644E-1,4.486317635E-1
2.821925628E1,4.066812992E-2,-5.363559723E-2,4.474264383E-1
2.831932322E1,-8.128499985E-1,7.682733536E-1,3.436831236E-1
2.841938992E1,2.565537095E-1,-7.234582901E-1,5.462384224E-2
2.851945751E1,-3.931618333E-1,4.361743927E-1,-9.289054871E-1
2.861953074E1,7.542932630E-1,3.054313660E-1,-4.704143405E-1
2.871959804E1,1.793620586E-1,6.658267975E-2,1.473449469E-1
2.881966474E1,-3.245837688E-1,-8.064355850E-1,3.147362471E-1
2.891972614E1,3.665395975E-1,3.677434921E-1,6.271988153E-1
2.901979313E1,-1.070051193E-1,-1.728334427E-1,4.639971256E-1
2.911986406E1,4.252337217E-1,-5.873346329E-1,4.844908714E-1
2.921993149E1,5.852992535E-1,7.372264862E-1,2.155013084E-1
2.931999866E1,8.050107956E-2,1.720190048E-1,-5.539274216E-2
2.942006729E1,5.848072767E-1,4.333286285E-1,-5.614708066E-1
2.952013359E1,-1.387078762E-1,1.797952652E-1,-8.772397041E-2
2.962020068E1,-1.065875292E-1,-2.606687546E-1,-2.158882618E-1
2.972026078E1,2.182635069E-1,1.093864441E-2,-4.785056114E-1
2.982032821E1,-6.185523272E-1,-2.542505264E-1,8.066082001E-2
2.992039651E1,1.814055443E-2,-1.422138214E-1,-2.449514270E-1
3.002046564E1,-6.293662786E-1,-6.910324097E-2,4.588328600E-1
3.012053264E1,-3.338490725E-1,9.373159409E-1,4.119104147E-1
3.022059843E1,-4.986344576E-1,9.395980835E-2,3.032457829E-1
3.032067110E1,-6.538888216E-1,3.957357407E-1,6.633162498E-3
3.042073829E1,-2.004221678E-1,-3.789625168E-1,-2.583462000E-1
3.052080536E1,-8.710627556E-1,-7.756710052E-1,5.617848635E-1
3.062086716E1,1.839904785E-1,6.072282791E-1,-7.784782052E-1
3.072093336E1,-6.774023771E-1,-5.927257538E-1,-9.384173155E-2
3.082099972E1,-1.174167991E-1,4.063138962E-1,4.431927204E-2
3.092106765E1,1.264848709E-1,3.423471451E-1,-1.213716269E-1
3.102113672E1,-3.055715561E-2,4.794616699E-1,4.343678951E-1
3.112120485E1,1.447764635E-1,-3.810625076E-1,3.991460800E-1
3.122127488E1,-1.873589754E-1,7.202320099E-1,-4.744406939E-1
3.132134054E1,7.522320747E-2,-1.101198196E0,1.334949732E-1
3.142141271E1,4.808104038E-2,1.261784554E0,-1.793617010E-1
3.152147890E1,3.298752308E-1,3.229141235E-2,-4.842835665E-1
3.162155354E1,-4.859699011E-1,-1.206125259E0,-2.940019965E-1
3.172161323E1,1.665373087E0,1.566946030E0,4.276785851E-1
3.182167663E1,-9.532041550E-1,5.332145691E-1,-4.657163620E-1
3.192173669E1,-9.428311586E-1,-8.909511566E-1,-2.866511345E-1
3.202180626E1,3.653752804E-2,1.129831314E0,-8.040094972E-1
3.212187569E1,-2.471092939E-1,-2.694807053E-1,-2.494254112E-1
3.222194292E1,-8.315879703E-1,-5.764770508E-2,-9.163532853E-1
3.232201058E1,2.440091372E-1,-8.520507812E-2,-8.444477320E-1
3.242209058E1,-1.913466454E-1,-5.887889862E-2,1.530634165E-1
3.252215701E1,-2.850288153E-1,8.590984344E-2,2.842767239E-1
3.262222344E1,-1.707843542E-1,6.644563675E-1,1.763570309E-1
3.272227364E1,-1.668152809E-1,-6.796369553E-1,-1.182467341E-1
3.282234044E1,6.716413498E-1,4.364795685E-1,-6.109281778E-1
3.292240700E1,-4.441046715E-1,3.838539124E-2,8.599362373E-1
3.302248000E1,-2.461178303E-1,-2.495374680E-1,4.170881510E-1
3.312255206E1,8.539153337E-1,9.416580200E-2,4.872220755E-1
3.322262183E1,3.927731514E-2,4.415187836E-1,8.355782032E-1
3.332268652E1,5.280914307E-1,-2.954549789E-1,-2.777197361E-1
3.342275359E1,3.600957990E-1,1.393624306E0,2.471199036E-1
3.352299279E1,-7.160516381E-1,-6.470603943E-1,-6.334872246E-1
3.362305932E1,1.329798102E-1,-2.989807129E-1,-1.049808383E0
3.372312019E1,-9.289897084E-1,1.123491287E0,-2.686126232E0
3.382317645E1,-3.197368383E-1,-1.102798462E0,-2.325863123E0
3.392324378E1,-5.150670409E-1,1.063752174E0,4.641369581E-1
3.402331331E1,-2.349227667E-1,-9.036722183E-1,5.343188047E-1
3.412338074E1,-2.057025433E-1,8.776464462E-1,-6.318514347E-1
3.422344758E1,2.279522419E-1,2.411003113E-1,-8.236539364E-2
3.432351427E1,-3.426287174E-1,-3.084955215E-1,6.893444061E-1
3.442358210E1,-1.247433424E-1,-1.822767258E-1,-4.630157351E-1
3.452365220E1,1.543009281E-2,4.546365738E-1,-1.003948092E0
3.462372040E1,4.465222359E-3,-1.263389587E-1,6.295931339E-2
3.472378450E1,4.901081324E-1,8.672647476E-1,5.623480082E-1
3.482384846E1,-3.066682816E-2,-5.418853760E-1,-4.806177020E-1
3.492392056E1,5.318951607E-2,4.506082535E-1,3.678699732E-1
3.502399006E1,1.837104559E-1,-5.092611313E-1,2.943273783E-1
3.512405772E1,-5.620225072E-1,5.926914215E-1,-6.125519872E-1
3.522412102E1,-1.254639626E-1,-5.796051025E-1,-5.006199479E-1
3.532418822E1,-1.364979744E-1,9.149932861E-1,-5.723684430E-1
3.542425505E1,-8.017275929E-1,-2.408847809E-1,9.107083082E-1
3.552432041E1,1.795182228E-1,-9.450588226E-1,8.346018791E-1
3.562438744E1,1.645557880E-1,5.531234741E-1,3.789865971E-1
3.572445904E1,-3.562115431E-1,6.913375854E-1,1.435027122E-1
3.582452664E1,-3.913283348E-3,-1.652240753E-2,-3.880395293E-1
3.592459383E1,-1.235878468E-2,-7.714147568E-1,3.544826508E-1
3.602466140E1,-2.735377550E-1,3.588180542E-1,4.253977537E-1
3.612473266E1,2.722853422E-1,5.040731430E-1,-6.760214567E-1
3.622480632E1,-2.002573013E-1,-1.292318344E0,-6.148946285E-2
3.632486809E1,1.686241627E-1,8.882951736E-1,9.781432152E-1
3.642493029E1,1.593418121E-1,1.197700500E0,-4.185930490E-1
3.652499078E1,-8.513430357E-1,-2.905471325E0,1.153173685E0
3.662506898E1,-3.800272346E-1,3.017763138E0,-2.339617491E0
3.672513444E1,-9.653909802E-1,1.902561188E-1,-8.619741201E-1
3.682520141E1,-2.367866039E-2,-5.807266235E-1,1.681699753E-1
3.692525790E1,7.518728971E-1,7.082309723E-1,-2.461017370E-1
3.702532680E1,-8.756105900E-1,-1.510583878E0,-1.076679111E0
3.712539423E1,6.656910181E-1,6.049709320E-1,1.438643575E0
3.722546746E1,-8.165550232E-2,-9.169483185E-1,-5.695705414E-1
3.732553456E1,-9.235370159E-2,-9.749355316E-1,-2.780743837E-1
3.742560172E1,-2.925683260E-1,-6.580524445E-1,3.819432855E-1
3.752566286E1,4.290060997E-1,-5.574331284E-1,3.490383029E-1
3.762573005E1,2.135659456E-1,2.702169418E-1,-8.895860910E-1
3.772579495E1,6.403936148E-1,-1.046695709E0,-2.728362083E-1
3.782586168E1,5.396640301E-2,-1.075242996E0,1.239846468E0
3.792592901E1,2.573847771E-1,3.394455910E0,1.642434835E0
3.802601574E1,-1.365180612E-1,-2.778911591E-2,1.837730408E-1
3.812608324E1,-1.033593416E-1,-5.193014145E-1,3.028204441E-1
3.822615050E1,-7.637730837E-1,8.662700653E-2,-1.248379946E-1
3.832620030E1,-4.408731461E-1,1.708221436E-2,-2.658062577E-1
3.842627000E1,-3.835225105E-2,-1.118023872E0,5.522335172E-1
3.852633760E1,-2.959793806E-1,1.662761688E0,-1.989707947E-1
3.862641203E1,2.756900787E-1,-6.827878952E-1,8.230336905E-1
3.872647423E1,1.326632500E-1,1.029128075E0,4.268027544E-1
3.882653989E1,5.367829800E-1,4.548263550E-2,-3.135355115E-1
3.892659942E1,-2.819237709E-1,-2.011957169E-1,9.036655426E-1
3.902667135E1,-1.387988329E-1,-3.124732971E-1,-7.585486174E-1
3.912674098E1,6.710035801E-1,7.117824554E-1,-6.242583990E-1
3.922681071E1,-1.972924471E-1,-4.678716660E-1,7.243589163E-1
3.932687938E1,3.437563181E-1,5.688076019E-1,5.677156448E-1
3.942694867E1,-3.171661496E-1,3.088970184E-1,-4.206486344E-1
3.952701294E1,-8.270028830E-1,3.468561172E-1,-5.891100168E-1
3.962707584E1,-1.417994499E-2,-4.567432404E-1,-1.162931561E0
3.972713713E1,-7.359508276E-1,1.212188721E0,-3.768939376E-1
3.982720480E1,-3.939220905E-1,-1.364135742E-1,9.046804905E-2
3.992727192E1,-3.322953582E-1,5.011968613E-1,4.690890312E-1
4.002734659E1,3.831458092E-2,6.795787811E-1,5.020325184E-1
4.012742092E1,-4.363272190E-1,1.927719116E-1,3.726302385E-1
4.022748768E1,3.731540442E-1,-2.261648178E-1,-1.110914707E0
4.032754908E1,-9.013330936E-2,1.709003448E-1,-1.128359556E0
4.042761041E1,-6.241815090E-1,1.174707413E-1,-1.628712058E0
4.052767794E1,2.363508940E-1,6.340513229E-1,2.972061634E-1
4.062774418E1,4.535691738E-1,-4.708318710E-1,5.902751684E-1
4.072802244E1,-4.254190326E-1,2.697486877E-1,5.209615231E-1
4.082809014E1,-1.830816269E-2,9.451284409E-1,4.093433619E-1
4.092815907E1,-2.338640094E-1,8.612728119E-2,2.083601952E-1
4.102822860E1,-6.470997334E-1,-9.996824265E-1,-9.472234249E-1
4.112829543E1,-8.734336495E-1,1.465626717E0,-2.098301411E0
4.122836863E1,-2.401627302E-1,-5.388708115E-1,6.061362028E-1
4.132843649E1,-5.140829086E-2,-2.761850357E-1,-2.296545506E-1
4.142850342E1,3.026055098E-1,5.846815109E-1,1.061964869E0
4.152856726E1,-2.777416706E-1,4.645843506E-1,2.602247000E-1
4.162863335E1,-5.493130684E-1,-2.819957733E-1,-1.318686008E-1
4.172869942E1,6.443237066E-1,7.966842651E-1,-6.209468842E-1
4.182876781E1,6.049346924E-1,-6.356601715E-1,9.700095654E-2
4.192883534E1,4.260227680E-1,5.552787781E-1,8.397400379E-2
4.202890347E1,6.416202784E-1,-2.402973175E-1,8.408378363E-1
4.212896597E1,-1.429866552E-1,-6.053600311E-1,6.253222227E-1
4.222903297E1,6.164294481E-1,6.824178696E-1,7.615950108E-1
4.232910033E1,-2.767760158E-1,9.649944305E-2,-1.019958258E-1
4.242916756E1,-8.106840849E-1,-3.773498535E-1,1.786859035E-1
4.252923436E1,-8.253733516E-1,-4.933643341E-2,-4.627337456E-1
4.262930129E1,-5.362544060E-1,-1.067552567E-1,1.583105326E-1
4.272936636E1,-7.140481472E-1,-7.321805954E-1,5.664265156E-2
4.282943939E1,-5.354266167E-1,-1.372528076E-1,3.169997931E-1
4.292950769E1,2.796860933E-1,4.766569138E-1,9.677131176E-1
4.302957668E1,-1.976832151E-1,-3.613300323E-1,3.860139847E-2
4.312963795E1,1.877170801E-1,7.485570908E-1,-4.639221430E-1
4.322970454E1,1.010733843E-1,-3.448839188E-1,2.447603941E-1
4.332977177E1,3.481676579E-1,3.848142624E-1,1.173343658E-1
4.342983930E1,-1.501413584E-1,-5.491199493E-1,-7.962689400E-1
4.352990617E1,5.057418346E-2,5.518684387E-1,-2.321276665E-1
4.362997556E1,2.706639767E-1,2.225399017E-2,2.344847918E-1
4.373004603E1,1.727521420E-2,8.741769791E-1,-2.217024565E-1
4.383011313E1,-4.125807881E-1,-1.208135605E0,1.804201603E-1
4.393017813E1,3.244990110E-2,2.117741585E0,-2.053632736E-1
4.403024196E1,-8.074471354E-1,-1.525042534E0,-8.108406067E-1
4.413030879E1,-5.004003048E-1,8.699493408E-1,-5.139549971E-1
4.423037545E1,-4.668056965E-2,3.841876984E-2,-1.264537573E-1
4.433044248E1,-2.860578895E-1,-3.426685333E-1,6.793597937E-1
4.443050978E1,3.930228949E-1,2.515993118E-1,1.519329190E0
4.453057801E1,1.389927864E-1,3.313341141E-1,1.008165002E0
4.463064664E1,2.773699760E-1,-6.641130447E-1,-1.826361418E-1
4.473071240E1,7.100847960E-1,9.361219406E-1,5.440108776E-1
4.483077827E1,-1.810551882E-1,5.232858658E-1,1.597651839E0
4.494078400E1,3.199084997E-1,-2.103267193E0,-7.478243113E-1
4.504085903E1,1.469633222E0,2.359952927E0,2.032715797E0
4.514092679E1,-8.142070770E-1,2.051086426E-1,7.152874470E-1
4.524106519E1,2.692734003E-1,-1.773983955E0,1.254385829E0
4.534112569E1,3.766607046E-1,1.688012123E0,1.846448183E-1
4.544119419E1,-3.472937346E-1,-6.217622757E-1,1.548804045E-1
4.554125765E1,3.849291801E-1,-6.083965302E-1,2.162218094E-3
4.564132752E1,-6.540796757E-1,8.686256409E-1,-1.062545776E-1
4.574139211E1,-2.722476125E-1,-1.280928612E0,-1.698126197E-1
4.584145831E1,-2.465020418E-1,2.636737823E-1,-6.916849613E-1
4.594152267E1,4.852643013E-1,1.124225616E0,6.440533400E-1
4.604159064E1,3.010184765E-1,-7.944965363E-1,4.171758890E-1
4.614165930E1,1.484420538E0,2.211344719E0,-7.449671030E-1
4.624172790E1,-8.541656137E-1,-2.494853497E0,-1.517020464E-1
4.634179546E1,7.928291559E-1,1.735152245E0,-8.924591541E-2
4.644186366E1,-2.811794281E-1,-3.452329636E-1,-3.936283588E-1
4.654193052E1,-8.363127708E-3,5.018453598E-1,1.125427127E0
4.664200095E1,3.293203115E-1,-2.459325790E-1,4.355187416E-1
4.674207435E1,2.935853004E-1,2.917900085E-1,8.835556507E-1
4.684213998E1,-1.206921935E-1,1.066799164E-1,3.414881229E-1
4.694220411E1,-1.047233939E0,-9.527397156E-2,1.064567566E-1
4.704226268E1,2.914196253E-1,-2.251157761E-1,1.998746395E-2
4.714233027E1,-1.232620955E0,5.921840668E-2,1.141887903E-1
4.724239704E1,-6.991961002E-1,6.317615509E-2,-2.201935053E-1
4.734246437E1,-7.719026208E-1,-2.709283829E-1,-2.914031744E-1
4.744253137E1,-5.346089602E-1,2.719793320E-1,5.069653988E-1
4.754259843E1,-5.004807711E-1,1.047631264E0,3.740909100E-1
4.764267526E1,-8.047487736E-1,-7.464027405E-1,-3.804516792E-1
4.774274036E1,5.500793457E-2,6.922988892E-1,-7.251673937E-1
4.784280743E1,-1.245235920E0,3.905906677E-1,-4.317277670E-1
4.795277938E1,1.914651394E-1,-2.124595642E-1,-4.925525188E-1
4.805285381E1,5.767047405E-1,2.572383881E-1,3.359246254E-2
4.815292104E1,-2.226216793E-1,4.565334320E-1,-2.074104548E-1
4.825299360E1,-2.987183928E-1,-8.979778290E-1,2.547501326E-1
4.835306537E1,4.712358713E-1,5.422687531E-1,3.485178947E-1
4.845313857E1,-2.483526170E-1,-4.238424301E-1,-1.181757450E-2
4.855320233E1,7.330337167E-1,3.315229416E-1,1.023810625E0
4.865325850E1,-2.079567611E-1,-5.977745056E-1,-7.510497570E-1
4.875332456E1,3.473380804E-1,-6.343650818E-1,-6.854719520E-1
4.885338979E1,3.877109885E-1,7.782249451E-1,7.837595940E-1
4.895345769E1,-6.471298337E-1,2.625360489E-1,7.203149796E-1
4.905352075E1,3.682026863E-1,1.822185516E-2,1.401009560E-1
4.915358825E1,1.056864262E-1,7.316293716E-1,-5.843484402E-2
4.925365532E1,-3.087381124E-1,-5.531978607E-1,1.224664450E-1
4.935372238E1,-3.018751144E-1,6.697235107E-1,-4.604208469E-2
4.945379348E1,-5.570387840E-1,-5.231771469E-1,-4.638732672E-1
4.955386074E1,-1.058292389E-1,3.148803711E-1,4.098026752E-1
4.965392607E1,6.725085974E-1,1.373672485E-1,3.915817738E-1
4.975398980E1,-4.922664165E-2,-2.117347717E-1,6.582000256E-1
4.985405667E1,-3.294905424E-1,3.578329086E-1,4.129189253E-1
4.995412470E1,-5.433866978E-1,-2.749729156E-2,-2.528537512E-1
5.005419130E1,1.178825498E-1,-2.105646133E-1,-5.443532467E-1
5.015425859E1,-6.477366686E-1,2.630033493E-1,-1.504325867E-1
5.025432649E1,-2.925857306E-1,-5.075092316E-1,2.129775286E-1
5.035439362E1,-4.429030418E-2,-1.760025024E-1,-1.954693198E-1
5.045446059E1,-9.519875050E-2,5.911636353E-1,1.211093664E-1
5.055452698E1,-2.006000280E-1,9.579849243E-2,2.215231657E-1
5.065459335E1,3.710217476E-1,3.684864044E-1,9.987831116E-2
5.075466258E1,-4.881365299E-1,8.290338516E-1,-1.872065187E0
5.085472971E1,1.033131838E0,-3.736114502E-1,-1.754955053E-1
5.095479754E1,-1.282349825E-1,1.645441055E-1,-7.500054836E-1
5.105486291E1,2.743315697E-1,4.553165436E-1,-1.749589443E-1
5.115493044E1,-1.204959154E-1,-3.605012894E-1,4.952611923E-1
5.125499810E1,-5.889892578E-3,5.193710327E-2,2.456110716E-1
5.135506523E1,1.228219271E-1,1.654434204E-2,-8.246783018E-1
5.145513190E1,-9.643280506E-1,5.689392090E-1,-3.859599829E-1
5.155520366E1,-8.382281661E-1,-6.356697083E-1,-2.783079147E-1
5.165526983E1,-2.911506891E-1,1.059742928E0,-1.899577141E0
5.175533519E1,-8.394450545E-1,-5.650730133E-1,6.119621992E-1
5.185540019E1,-9.335243702E-2,-2.814331055E-1,6.236885786E-1
5.195546819E1,-9.630560875E-2,-1.461849213E-1,-2.418402433E-1
5.205553716E1,1.601431370E-1,9.691925049E-1,2.548192739E-1
5.215560135E1,5.805730820E-1,-7.824449539E-1,-4.336407185E-1
5.225560138E1,4.039131403E-1,9.161853790E-1,-3.834534883E-1
5.235567508E1,-6.651798487E-1,-9.697914124E-1,-4.817276001E-1
5.245574235E1,6.919982433E-1,7.546777725E-1,-8.601748943E-1
5.255588031E1,2.218036652E-1,-8.158617020E-1,1.952408552E-1
5.265594071E1,2.244693041E-1,2.106285095E-1,9.869972467E-1
5.275601161E1,1.612645388E-1,6.195926666E-2,1.235560179E-1
5.285607547E1,-6.287856102E-1,3.088932037E-1,4.735577106E-2
5.295614287E1,-3.924773335E-1,-2.631473541E-2,-4.962921143E-1
5.305620613E1,-6.745797396E-1,1.712255478E-1,-3.080935478E-1
5.315627290E1,-8.652206659E-1,8.342933655E-2,-3.239380121E-1
5.325633966E1,-1.356860399E-1,-2.646274567E-1,7.743537426E-3
5.335641163E1,-3.521611691E-1,1.079082489E-2,3.898709416E-1
5.345647989E1,-3.934392929E-1,7.628250122E-2,8.614363670E-1
5.355654809E1,9.292864799E-2,2.387475967E-1,6.275138855E-1
5.365660992E1,4.372751713E-2,1.605625153E-1,2.937546968E-1
5.375667472E1,8.964657784E-3,4.147071838E-1,-9.157061577E-3
5.385674181E1,5.314922333E-2,-4.457292557E-1,5.903363228E-3
5.395680948E1,-1.588814259E-1,-6.316089630E-2,1.554741859E-1
5.405687754E1,2.316927910E-1,1.065053940E-1,-1.818645000E-1
5.415694994E1,-1.121991873E-1,-3.968524933E-2,8.982384205E-2
5.425701714E1,1.216280460E-2,-6.686372757E-1,9.976725578E-1
5.435708457E1,1.378128529E-1,4.175844193E-1,3.703948259E-1
5.445714577E1,-1.079250574E-1,-5.743503571E-2,6.398689747E-2
5.455721697E1,-4.247883260E-1,5.701494217E-1,1.499633789E-1
5.465728283E1,2.617948055E-1,-1.530046463E-1,2.252826691E-1
5.475734847E1,-4.774851203E-1,-4.122314453E-1,-4.692313671E-1
5.485741090E1,-5.637248158E-1,-1.333808899E-1,-2.592445612E-1
5.495747939E1,-2.810816765E-1,3.073434830E-1,3.118244410E-1
5.505754802E1,-3.193712234E-2,-3.099412918E-1,2.795692682E-1
5.515761802E1,2.697118521E-1,6.714677811E-1,-1.934560537E-1
5.525769888E1,-2.692408562E-1,-4.460716248E-2,-2.397007942E-1
5.535776627E1,2.895236015E-2,-1.310348511E-2,4.628503323E-2
5.545783114E1,-7.040703297E-1,1.926498413E-1,-7.532885075E-1
5.555789847E1,9.274637699E-2,-3.894042969E-2,-3.752248287E-1
5.565796513E1,-5.468344688E-2,4.938907623E-1,3.782312870E-1
5.575803016E1,2.544534206E-1,4.925632477E-2,9.310296774E-1
5.585809720E1,1.296784878E-1,-4.467725754E-1,4.139342308E-1
5.595816653E1,-6.987845898E-2,7.587242126E-1,8.942397833E-1
5.605823639E1,-2.565835714E-1,-2.810478210E-2,-2.459168434E-3
5.615830339E1,-6.230657101E-1,-1.476736069E-1,-1.228272915E-2
5.625836839E1,-1.082611084E-2,1.222753525E-1,-1.085656881E-1
5.635844152E1,-6.836639047E-1,-4.180307388E-1,3.219199181E-1
5.645850858E1,-1.398767233E-1,2.677116394E-1,1.391736269E-1
5.655857578E1,-3.020584583E-2,-4.065675735E-1,9.640990496E-1
5.665863514E1,-1.468797922E-1,4.593334198E-1,2.008512020E-1
5.675870114E1,1.023921967E-1,1.905956268E-1,2.272855043E-1
5.685876794E1,6.468462944E-2,1.166248322E-2,-2.925904989E-1
5.695883630E1,-3.036856651E-2,-5.344715118E-1,-6.321794987E-1
5.705890583E1,-9.867346287E-2,8.938484192E-1,-1.327210665E-1
5.715897336E1,-3.912370205E-1,-9.430503845E-2,-1.232826710E-1
5.725904043E1,4.604386091E-1,-1.743946075E-1,3.384511471E-1
5.735910723E1,8.466945887E-1,-2.649135590E-1,3.948189020E-1
5.745917433E1,2.305790186E-1,5.173673630E-1,-1.417397261E-1
5.755924639E1,-2.439743280E-2,-3.038434982E-1,-2.648931742E-1
5.765931159E1,5.254882574E-2,4.587678909E-1,4.875855446E-1
5.775938059E1,1.614269018E-1,-3.441886902E-1,-3.859543800E-2
5.785944265E1,-2.692079544E-2,-5.949945450E-1,-5.601525307E-3
5.795951751E1,1.524025202E-2,-3.897075653E-1,-8.366954327E-2
5.805958288E1,-2.653408051E-2,8.383617401E-1,1.212090254E-1
5.815965004E1,-2.332818508E-2,-3.069086075E-1,6.226555109E-1
5.825971061E1,1.091368198E-1,-2.711172104E-1,3.102846146E-1
5.835978304E1,4.657714367E-1,1.563739777E0,-1.058387280E0
5.845985180E1,-4.273052216E-1,-2.842026711E0,-3.597371578E-1
5.855992074E1,1.017560005E0,3.357040405E0,3.637883663E-1
5.865998180E1,3.599365950E-1,3.991115570E0,6.435849667E-1
5.876004607E1,-1.002090573E0,-5.734337807E0,1.471008062E-1
5.886011280E1,1.962551594E0,4.623689651E0,-3.097940683E-1
5.896018059E1,-1.192512155E0,1.009325981E0,-5.626558065E-1
5.906024909E1,-5.236884356E-1,-2.411729813E0,5.290777683E-1
5.916031555E1,-1.763575077E-1,-1.311159134E-1,-7.235822082E-1
5.926038445E1,-7.991865873E-1,-7.420225143E-1,-7.414132953E-1
5.936045152E1,-4.937897325E-1,-1.112478256E0,-2.594715953E-1
5.946051768E1,-1.053924322E0,-7.153434753E-1,-5.513242483E-1
5.956058371E1,-6.386412382E-1,7.563180923E-1,9.630453587E-2
5.966064954E1,-4.017007351E-1,-3.828239441E-2,9.435404539E-1
5.976071687E1,-4.851051569E-1,-1.639596939E0,8.632748723E-1
5.986078694E1,1.221407652E-1,1.423478127E0,-2.546131611E-2
5.996085513E1,-5.236296654E-1,8.173522949E-1,-1.241033196E0
6.006092233E1,-1.353727698E0,-1.621578693E0,3.802651167E-2
6.016098626E1,4.025908470E0,6.709196091E0,-1.938826084E0
6.026105556E1,-2.587653637E0,-1.215079308E0,-3.181657791E-1
6.036112236E1,-4.973071814E-1,1.178264618E-2,-2.698750496E-1
6.046118916E1,-1.834855080E-1,1.807600975E0,2.198600769E-2
6.056125445E1,-7.101315260E-1,-2.222661972E-1,3.480676413E-1
6.066132078E1,-9.008187652E-1,1.421833038E-2,7.941679955E-1
6.076138661E1,-1.422928333E0,5.961513519E-1,-1.423246861E-1
6.086145474E1,-7.520169020E-1,1.238956451E-1,3.703675270E-1
6.096152271E1,-8.554137349E-1,-2.136621475E-1,-2.502492666E-1
6.106159527E1,-1.055681229E0,7.983188629E-1,4.607698917E-1
6.116166104E1,-7.052303553E-1,2.057695389E-1,1.967740059E-2
6.126172793E1,-4.587914944E-1,6.232252121E-1,4.310705662E-1
6.136180520E1,-1.091886640E0,2.024798393E0,2.686177492E-1
6.146187633E1,-1.223604083E0,-1.603556156E0,-1.659404755E0
6.156194573E1,-5.429906845E-1,-2.692470551E-1,8.667473197E-1
6.166200263E1,4.734177589E-1,1.300637245E0,2.144824982E0
6.176206439E1,3.531304598E-1,-3.676115036E0,-1.525640011E0
6.186213362E1,-2.441567183E0,1.919622421E-1,-2.674624324E-1
6.196219635E1,1.190604329E0,2.457059860E0,-7.641988993E-2
6.206226695E1,-1.984679699E-1,2.853200912E0,2.564442635E0
6.216233025E1,1.785798073E-1,-2.574742794E0,2.662402391E-1
6.226239921E1,-7.813937664E-1,-1.220007896E0,-1.367915154E0
6.236246441E1,-1.595377207E0,5.905519485E0,-4.157475471E0
6.246253576E1,3.501149416E-1,-3.500682831E0,1.345179200E0
6.256260136E1,-9.465196133E-1,-3.348549843E0,-1.629095554E0
6.266266869E1,1.465411663E0,5.951962471E0,-6.625901699E0
6.276273465E1,-4.694778919E-1,-3.707217693E0,5.210722685E-1
6.286280268E1,-1.257174015E0,2.355921745E0,-7.048149109E-1
6.296286988E1,1.317227125E0,-3.460695267E0,-3.402658701E-1
6.306293804E1,7.643845081E-1,3.729483604E0,-8.237612247E-2
6.316300517E1,2.498711348E-1,-1.992295742E0,-4.484653473E-3
6.326308044E1,5.272252560E-1,3.791246414E-1,-4.803991318E-2
6.336314647E1,6.672546268E-1,1.144820213E0,-3.154240847E-1
6.346321390E1,-5.337642431E-1,-8.871469498E-1,-7.535549402E-1
6.356327266E1,1.794446111E-1,1.112761497E0,-4.268560410E-1
6.366333913E1,3.421907425E-1,4.771385193E-1,-1.468257427E0
6.376340989E1,4.156077504E-1,-4.150724411E-1,-4.624073505E-1
6.386347865E1,7.721900940E-2,-4.645452499E-1,-3.517799377E-1
6.396354702E1,9.687150717E-1,1.282661438E0,-9.182212949E-1
6.406360895E1,9.641774893E-1,-1.207308769E0,-3.775931597E-1
6.416367448E1,9.999378920E-1,6.744098663E-1,-6.279993057E-1
6.426374161E1,6.498434544E-1,5.201816559E-1,-1.340596437E0
6.436380927E1,-6.533765793E-2,-9.287948608E-1,-1.427439451E-1
6.446387680E1,1.116096616E0,8.058776855E-1,8.073354959E-1
6.456394390E1,7.098519802E-1,-8.777980804E-1,2.105562687E-1
6.466401184E1,3.897676468E-1,-2.054595947E-1,5.800168514E-1
6.476407783E1,8.613015413E-1,1.095558167E0,1.522288322E-1
6.486414480E1,-4.154692590E-1,-3.139972687E-2,7.442462444E-2
6.496421110E1,3.825489879E-1,-1.792678833E-1,-6.067858934E-1
6.506427879E1,-9.949100018E-1,-3.820199966E-1,-8.265061378E-1
6.516435102E1,-5.447200537E-1,-2.852468491E-1,-6.200588346E-1
6.526441899E1,-1.042950153E-2,4.088754654E-1,2.770564556E-1
6.536448638E1,-3.601804972E-1,5.886135101E-1,1.547983527E0
6.546454855E1,-4.067560434E-1,-3.082418442E-1,7.357219458E-1
6.556461481E1,1.382315159E-1,-1.930055618E-1,-8.472728729E-2
6.566468148E1,-2.338268757E-1,-1.706713676E0,3.327327967E-1
6.576474787E1,2.779471874E-1,4.317703247E-1,-2.819613218E-1
6.586481670E1,-6.561590433E-1,-5.062770844E-1,4.057065248E-1
6.596489117E1,8.195502758E-1,2.224129677E0,3.482894421E0
6.606495900E1,-6.397967935E-1,-2.643727779E0,5.712622404E-1
6.616502426E1,3.138304949E-1,1.528123856E0,1.560847759E-1
6.626508470E1,-1.605789661E-1,4.757318497E-1,2.291581631E-1
6.636515183E1,-8.903242350E-1,-3.958148956E-1,-1.862485409E-1
6.646521879E1,-8.221018314E-2,4.588985443E-2,-6.418055296E-1
6.656528866E1,-1.996718645E-1,2.236423492E-1,-4.426352978E-1
6.666535459E1,-4.227042198E-1,-5.060291290E-1,7.980645895E-1
6.676542085E1,2.071330547E-1,5.472211838E-1,5.641686916E-2
6.686548922E1,2.089087963E-1,-3.533296585E-1,-2.957390547E-1
6.696555761E1,-1.346945763E-2,1.180647850E0,-3.315804005E-1
6.706562574E1,-3.465446234E-1,-9.068851471E-1,2.014636993E-1
6.716569081E1,3.236489296E-1,-7.851028442E-2,-4.356380701E-1
6.726576311E1,4.601867199E-1,3.301420212E-1,1.380664110E-1
6.736583017E1,-4.274425507E-1,-5.858230591E-1,4.916352034E-1
6.746589507E1,-8.298921585E-2,1.107535362E0,5.067784786E-1
6.756596293E1,-5.488962531E-1,-4.181098938E-2,6.127476692E-2
6.766603423E1,-6.577686071E-1,-2.997665405E-1,7.937840223E-1
6.776610179E1,-8.174002171E-2,-2.228450775E-2,2.319701910E-1
6.786616262E1,-8.066452742E-1,7.457942963E-1,-3.919612169E-1
6.796622612E1,-3.111343384E-1,-1.501200676E0,4.692838192E-1
6.806629258E1,-1.974966526E-1,2.118085861E0,1.398509502E0
6.816636695E1,1.392052174E-1,-7.787084579E-1,-2.817785740E-1
6.826643411E1,3.740491867E-1,-1.016436577E0,1.052467823E-1
6.836650144E1,7.580194473E-1,1.592080116E0,-6.581953764E-1
6.846656181E1,-8.045747876E-1,-5.405817032E-1,1.106786728E-1
6.856662874E1,4.106804132E-1,-7.401237488E-1,-3.692231178E-1
6.866669490E1,9.869619608E-1,5.152082443E-1,-1.946102381E-1
6.876676416E1,-4.439323545E-1,4.001550674E-1,8.612871170E-3
6.886683103E1,2.052516937E-1,-5.837202072E-1,2.239986658E-1
6.896689949E1,-7.141244411E-2,1.011708260E0,5.361244678E-1
6.906696422E1,-3.044630289E-1,-8.564033508E-1,1.188492775E-1
6.916703795E1,-2.987675071E-1,6.324815750E-1,-8.339126706E-1
6.926710828E1,-6.649155021E-1,-8.267250061E-1,-1.070857048E-1
6.936717951E1,-3.714562654E-1,5.026130676E-1,3.272930384E-1
6.946724034E1,6.092536449E-2,-6.121129990E-1,1.336385965E0
6.956730391E1,1.758501530E-1,1.629795074E0,2.891025543E-1
6.966737177E1,-3.768455982E-2,-1.720273018E0,6.555259228E-1
6.976767859E1,-2.174509764E-1,1.460072517E0,-2.206214666E-1
6.986775105E1,-7.057871819E-1,-8.732194901E-1,-8.289684057E-1
6.996781422E1,4.561175108E-1,-3.004350662E-1,-9.702384472E-2
7.006788555E1,-6.759798527E-2,9.523115158E-1,-5.123341084E-2
7.016795418E1,-7.507447600E-1,-5.830688477E-1,3.266339302E-1
7.026802144E1,-9.449911118E-2,5.827169418E-1,1.172828674E-1
7.036808564E1,-5.351519585E-2,2.431488037E-2,4.198861122E-2
7.046814621E1,-1.087154150E0,1.646814346E-1,-2.938570976E-1
7.056821241E1,-3.620728850E-1,-1.191797256E-1,1.216322184E-1
7.066828387E1,-3.301786184E-1,4.542989731E-1,6.026757956E-1
7.076835097E1,-3.250045776E-1,3.620586395E-1,9.682160616E-1
7.086841790E1,-5.084196329E-1,-1.069621086E0,5.858396292E-1
7.096848139E1,6.526684761E-1,4.610853195E-1,4.980772734E-1
7.106854949E1,7.153296471E-2,5.304107666E-1,-1.027259946E0
7.116861712E1,-5.860825777E-1,-3.569297791E-1,9.794223309E-2
7.126868382E1,-2.516758442E-1,9.368133545E-2,-5.158827305E-1
7.136875018E1,5.996264219E-1,5.108833313E-1,7.503069639E-1
7.146881745E1,1.876438856E-1,-8.698863983E-1,8.918035030E-1
7.156888395E1,-3.069528341E-1,7.178201675E-1,9.784293175E-2
7.166894951E1,-3.718658686E-1,-1.181125641E-2,5.013563633E-1
7.176901544E1,-4.007528424E-1,-2.893743515E-1,-4.897612333E-1
7.186908444E1,-6.528558135E-1,2.613954544E-1,1.189149618E-1
7.196915681E1,-5.125653148E-1,5.623188019E-1,-2.469282150E-1
7.206923320E1,-1.426070929E-1,-6.304607391E-1,4.884511232E-1
7.216929863E1,-1.772680283E-1,3.307561874E-1,4.812122583E-1
7.226936433E1,4.751875401E-1,1.011789322E0,-3.467767239E-1
7.236942323E1,4.816889763E-2,1.459980011E-2,1.414232254E-1
7.246949352E1,3.892316818E-1,-1.174182892E-1,9.902119637E-3
7.256955845E1,-3.141037226E-1,8.673381805E-2,5.820131302E-2
7.266962445E1,3.404436111E-1,-1.126861572E-2,-3.120876551E-1
7.276968792E1,3.840495348E-1,-3.581981659E-1,5.271286964E-1
7.286975541E1,5.873632431E-2,4.630861282E-1,6.696101427E-1
7.296982341E1,-1.598998308E-1,-3.499984741E-2,3.305821419E-1
7.306989281E1,-4.770504236E-1,2.026205063E-1,3.046439886E-1
7.316996144E1,-9.870921373E-1,1.340637207E-1,-7.484108210E-1
7.327002894E1,-3.234784603E-1,-1.360273361E-1,-4.917513728E-1
7.337009420E1,-1.802926660E-1,8.924226761E-1,3.918329477E-1
7.347015943E1,-5.287423730E-1,-7.930030823E-1,5.317854881E-1
7.357022646E1,-6.280303001E-3,5.808267593E-1,5.686416626E-1
7.367029636E1,3.236284256E-1,4.356575012E-2,-4.059017897E-1
7.377036189E1,3.323543072E-1,4.274597168E-1,-3.092861176E-2
7.387043632E1,-1.397138834E-1,-7.263431549E-1,2.918511629E-1
7.397050102E1,3.812330961E-1,-1.116876602E-1,-7.452149391E-1
7.407056972E1,2.475293875E-1,-1.647567749E-2,1.128820181E-1
7.417062958E1,5.144578218E-1,8.046436310E-2,4.750628471E-1
7.427069721E1,6.133985519E-2,-3.157615662E-3,7.154172659E-1
7.437076418E1,-1.841274500E-1,-2.667999268E-2,1.291384697E-1
7.447083768E1,-6.253330708E-1,6.117486954E-1,-9.430014491E-1
7.457090711E1,-6.399297714E-2,-4.856824875E-1,-2.115714550E-1
7.467097301E1,-7.970767617E-1,1.460526466E0,1.118123531E-2
7.477103210E1,-5.946648121E-2,-1.060022354E0,3.628650904E-1
7.487109617E1,-4.710949063E-1,5.080356598E-1,1.478595257E0
7.497116470E1,7.204285860E-1,1.428432465E-1,4.917813540E-1
7.507123356E1,-3.960516453E-1,-9.707784653E-1,7.837414742E-3
7.517130069E1,7.844516039E-1,9.255723953E-1,-9.290950894E-1
7.527136816E1,-2.598425150E-1,6.128358841E-1,-1.876883507E-1
7.537143519E1,-9.653043747E-2,-8.276367188E-1,9.603774548E-2
7.547150532E1,7.945085764E-1,9.670162201E-2,1.803330183E-1
7.557157225E1,4.476130009E-1,1.055698395E0,-1.112902164E-1
7.567164375E1,-1.388165951E-1,-1.727020741E0,2.928451300E-1
7.577171224E1,-5.510944724E-1,1.483063698E0,-3.513259888E-1
7.587177908E1,2.464760542E-1,-5.990533829E-1,-1.183411121E0
7.597184194E1,-1.277982593E-1,-1.527128220E-1,-1.333296299E-1
7.607190507E1,1.284850836E-1,1.358473778E0,3.792049885E-1
7.617197220E1,9.458732605E-2,-1.643159389E0,7.068462372E-1
7.627203927E1,1.007527113E-1,1.688197136E0,-4.022196531E-1
7.637210697E1,6.171115637E-1,-4.918575287E-2,-1.432032347E0
7.647218836E1,-1.999346018E-1,-1.426936150E0,1.823879123E0
7.657225593E1,1.131937861E0,1.735450745E0,-1.614967823E0
7.667232099E1,2.215147018E-3,-1.013381958E0,-1.652455330E-2
7.677237319E1,4.421900511E-1,-4.941053391E-1,1.154775977E0
7.687244675E1,7.642527819E-1,1.654857635E0,2.276668549E-1
7.697251512E1,1.769287586E-1,-7.796916962E-1,1.428010702E0
7.707256559E1,2.599298954E-1,2.383260727E-1,5.793490410E-1
7.717262588E1,-6.847659945E-1,-2.398071289E-1,-2.771484852E-1
7.727269288E1,-3.946497440E-1,5.042552948E-1,-2.784490585E-1
7.737276338E1,-2.012557983E-1,1.544666290E-1,-9.981763959E-1
7.747283014E1,-5.587702394E-1,-1.552410126E-1,7.366850376E-1
7.757289767E1,-3.145889044E-1,2.786016464E-1,1.123463154E0
7.767296534E1,-4.228403568E-1,-8.058586121E-1,4.430708885E-1
7.777303347E1,5.744173527E-1,1.022176743E0,-6.470055580E-1
7.787310030E1,-2.017199993E-1,-1.162160873E0,1.432776451E-1
7.797316386E1,-2.276433706E-1,5.743598938E-1,2.444013357E-1
7.807323013E1,9.582543373E-2,-4.355354309E-1,-7.246680260E-1
7.817330050E1,3.273642063E-1,-4.313936234E-1,2.315731049E-1
7.827336733E1,-4.883891344E-1,1.143895149E0,1.056711316E0
7.837343436E1,-6.556022167E-2,2.791690826E-1,4.942154884E-2
7.847350239E1,-4.830104113E-1,6.544733047E-1,-1.129882336E-1
7.857356975E1,-7.729308605E-1,-3.094196320E-1,-1.651383638E-1
7.867363648E1,-1.069032073E0,3.854751587E-2,-2.054073811E-1
7.877369895E1,-1.825870275E-1,-3.472623825E-1,5.247613192E-1
7.887376935E1,-6.054067612E-2,2.832727432E-1,-2.608768940E-1
7.897383734E1,-7.031029463E-1,-7.368583679E-1,4.648809433E-1
7.907390527E1,5.630252361E-1,1.862826347E0,-1.757407188E-1
7.917396910E1,-2.147285938E-1,-1.417602539E0,-3.861546516E-1
7.927403677E1,3.719406128E-1,4.340238571E-1,-5.457142591E-1
7.937410457E1,-3.044562340E-1,1.608867645E-1,-6.170930862E-1
7.947417620E1,-3.353276253E-1,-8.735160828E-1,1.741075516E-2
7.957424266E1,3.756736517E-1,1.003892899E0,5.460000038E-2
7.967430766E1,-4.683210850E-1,1.744737625E-1,-5.741225481E-1
7.977437002E1,-2.080533504E-1,-3.703794479E-1,6.481381655E-1
7.987444162E1,-9.262768030E-1,5.473985672E-1,-7.404315472E-2
7.997451028E1,-5.593225956E-1,1.587743759E-1,-3.559833765E-1
8.007458338E1,-8.790901899E-1,-4.922571182E-1,3.082871437E-3
8.017464551E1,-7.426869869E-1,7.338151932E-1,6.644480228E-1
8.027471254E1,-6.410005093E-1,-3.173589706E-1,6.071765423E-1
8.037478114E1,2.861146927E-1,1.970567703E-1,-5.790357590E-1
8.047484877E1,7.174110413E-1,1.411652565E0,4.248867035E-1
8.057491593E1,-6.493234634E-1,-1.469897270E0,-5.152434111E-1
8.067497810E1,4.580008984E-2,1.269828796E0,-1.086193323E-1
8.077504410E1,1.978276968E-1,-4.955787659E-1,-5.942091942E-1
8.087511129E1,8.717613220E-1,1.100158691E-2,3.715683222E-1
8.097517616E1,7.521268129E-1,-4.615592957E-2,4.157977104E-1
8.107524452E1,2.095590830E-1,-1.614303589E-1,3.079152107E-1
8.117531165E1,-1.081764698E-3,5.400075912E-1,3.370860815E-1
8.128365055E1,1.091979742E-1,-2.854003906E-1,-2.708299160E-1
8.139005524E1,-6.707114577E-1,-7.225875854E-1,-2.859307528E-1
8.149646764E1,1.934800148E-1,1.299858093E-3,1.120793819E-2
8.160560820E1,-3.043743372E-1,-1.153062820E0,-2.482078075E-1
8.170567020E1,6.617431641E-1,1.011175156E0,1.294193506E0
8.180573790E1,1.082150936E-1,2.914873123E0,-6.822726727E-1
8.190580499E1,-3.683756590E-1,-3.267084122E0,-4.723045826E-1
8.200587396E1,-3.021321297E-1,3.481483459E-1,-2.649831772E-1
8.210593619E1,1.960544586E-1,6.772375107E-1,-1.184109092E0
8.220600825E1,-1.587125063E-1,-1.216014862E0,7.416677475E-2
8.230607495E1,8.105773926E-1,2.544050217E0,6.760711670E-1
8.240614228E1,-2.052497864E-2,-1.085268974E0,-8.504664898E-2
8.250620454E1,-2.322185040E-2,-6.642789841E-1,7.102985382E-1
8.260627344E1,3.483507633E-1,4.513244629E-1,-4.214313030E-1
8.270633764E1,-6.316677332E-1,9.826755524E-2,1.177963018E-1
8.280640490E1,-8.785700798E-2,4.096345901E-1,2.980877161E-1
8.290647034E1,-4.600709677E-1,2.720165253E-1,2.427740097E-1
8.300654117E1,3.960285187E-1,-4.772758484E-2,8.484549522E-1
8.310660800E1,2.912966013E-1,-6.517620087E-1,5.649163723E-1
8.320667526E1,4.499056339E-1,1.127506256E0,-1.124583721E0
8.330674149E1,-6.765072346E-1,-2.750524998E0,1.128714085E-1
8.340681112E1,1.212939739E0,3.253049850E0,-1.187306404E0
8.350688042E1,-7.466374636E-1,-1.206937790E0,-5.205059052E-2
8.360694698E1,3.619933128E-2,-9.991168976E-2,1.440255046E0
8.370701654E1,-1.331967115E-1,1.162785530E0,7.052336931E-1
8.380708108E1,-7.012466788E-1,-7.259874344E-1,9.271862507E-1
8.390714847E1,-6.770763397E-1,5.371198654E-1,6.028032303E-1
8.400721434E1,-1.128099799E0,4.639205933E-1,-7.548035383E-1
8.410728190E1,-5.761236548E-1,-1.003463745E0,-8.842194080E-1
8.420734920E1,-4.030139446E-1,1.184368134E-1,1.366640449E0
8.431709086E1,3.449763060E-1,-4.669332504E-1,2.821321964E0
8.441715822E1,-2.312879562E-1,-1.521003723E0,1.003041029E0
8.451722532E1,1.170358658E0,4.526453018E-1,-6.743435860E-1
8.461729258E1,1.267663240E-1,-8.201828003E-1,5.136265755E-1
8.471735755E1,1.050364733E0,1.296501160E0,-6.652925014E-1
8.481742425E1,-4.337013960E-1,-6.916103363E-1,-6.025726795E-1
8.491749374E1,7.195458412E-1,-5.117425919E-1,1.708376408E-2
8.501756634E1,-1.086914539E-2,2.366871834E0,1.299117088E0
8.511763614E1,9.634852409E-3,-1.323823929E-1,7.797079086E-1
8.521770010E1,-4.933723211E-1,-1.100801468E0,-5.088378191E-1
8.531776400E1,-4.608619809E-1,2.599306107E-1,-2.808672190E-1
8.541782890E1,-6.604912877E-1,1.588108063E0,2.407963276E-1
8.551789680E1,-5.309304595E-1,-3.079179764E0,-3.710889816E-2
8.561796389E1,-7.809996605E-1,2.780211449E0,-7.425026894E-1
8.571802872E1,-8.790016174E-2,-1.349849701E-1,3.177950382E-1
8.581810209E1,4.940032959E-2,-6.508941650E-1,2.803837061E-1
8.591816938E1,4.478948116E-1,1.249193192E0,-5.837500095E-2
8.601824448E1,-4.389420748E-1,-6.912164688E-1,-3.258651495E-1
8.611831085E1,1.623470783E-1,1.541290283E-1,-5.664247274E-1
8.621837831E1,2.861827612E-1,1.579952240E-1,2.200744152E-1
8.631844028E1,2.306997776E-1,-3.587265015E-1,3.040381670E-1
8.641850187E1,-2.326714993E-1,5.350532532E-1,8.479361534E-1
8.651856870E1,-1.517777443E-1,4.352970123E-1,-3.078138828E-2
8.661863547E1,-5.284913778E-1,-1.199716568E0,2.280223370E-2
8.671870047E1,-1.375947833E0,1.271006584E0,-3.180316687E-1
8.681876706E1,-3.132163882E-1,-7.704353333E-2,1.384639740E-2
8.691883420E1,-2.799743414E-1,-3.129978180E-1,2.679657936E-2
8.701890353E1,2.325843573E-1,9.936590195E-1,3.418608904E-1
8.711897056E1,-4.335200787E-2,9.744358063E-2,-2.192505598E-1
8.721903779E1,-1.112287045E-1,8.035116196E-1,-3.699270487E-1
8.731910515E1,6.182509661E-1,-7.075538635E-1,-2.187991142E-2
8.741917275E1,1.543790102E-1,1.253347397E-1,-1.738417149E-2
8.751924462E1,5.728045702E-1,3.407325745E-1,8.244037628E-2
8.761931355E1,8.577117920E-1,-5.492134094E-1,1.550627947E-1
8.771937841E1,4.006791115E-1,-5.074663162E-1,9.215056896E-1
8.781944058E1,6.903936863E-1,8.865938187E-1,-3.963992596E-1
8.791951021E1,-5.912482738E-1,-1.173198700E0,-1.255022287E-1
8.801957967E1,9.092762470E-1,9.407300949E-1,5.460857153E-1
8.811964787E1,4.539060593E-2,8.725976944E-1,1.018081665E0
8.821971013E1,-4.518727064E-1,-1.777213097E0,-4.363069534E-1
8.831977689E1,-6.698548794E-2,-1.250220299E0,1.866223812E-1
8.841984293E1,2.244008780E-1,2.504087448E0,-6.163071394E-1
8.852871529E1,5.162739754E-2,2.567386627E-1,-2.399892807E-1
8.863145719E1,-3.525269032E-2,-9.769573212E-1,-1.483125687E-1
8.873419125E1,2.450417280E-1,1.363954544E-1,-8.402739167E-1
8.884013001E1,-2.373132706E-1,-7.480907440E-2,-4.848591089E-1
8.894019764E1,4.591854811E-1,-5.103588104E-2,9.049618244E-2
8.904026651E1,1.386852264E-1,2.603712082E-1,9.564518929E-2
8.914034310E1,-1.574603319E-1,7.016849518E-1,-3.170681000E-1
8.924040873E1,-4.381819367E-1,-2.624588013E-1,-7.864403725E-2
8.934047563E1,-4.226492643E-1,4.557628632E-1,1.615451574E-1
8.944053343E1,-1.318988800E-1,-1.947746277E-1,-9.106385708E-2
8.954059893E1,-7.371405363E-1,-3.703632355E-1,4.723894596E-1
8.964066509E1,3.395543098E-1,3.144531250E-1,7.844684124E-1
8.974073309E1,1.103093624E-1,1.190185547E-1,9.951519966E-2
8.984079689E1,8.089691401E-1,5.400962830E-1,2.878843546E-1
8.994086642E1,-6.543004513E-1,-9.291734695E-1,-2.632925510E-1
9.004093235E1,3.836351633E-1,2.739658356E-1,9.079992771E-2
9.014100245E1,4.233156443E-1,-2.676649094E-1,3.068165779E-1
9.024106948E1,4.316949844E-1,-1.487741470E-1,8.054965734E-1
9.034113968E1,1.564875841E-1,-8.025207520E-1,8.987081051E-1
9.044120681E1,6.957808733E-1,3.812437057E0,8.358241320E-1
9.054127570E1,-1.019067049E0,-2.672508240E0,-1.450381517E0
9.064133947E1,-4.102603793E-1,-2.664805889E0,-3.240537047E-1
9.074140147E1,-8.510177135E-1,2.722776413E0,-3.987739801E0
9.084146563E1,3.904868364E-1,-1.583930016E0,-8.455654383E-1
9.094153883E1,-1.320451856E0,2.008857727E-1,1.623562455E0
9.104160846E1,1.025683403E0,1.478151321E0,-1.395277500E0
9.114167889E1,-1.705403328E-1,-1.882915497E0,4.233430624E-1
9.124174066E1,-3.511428833E-1,1.100661278E0,-3.654438257E-1
9.134180732E1,2.744641304E-1,3.795146942E-2,-1.403482199E0
9.144187075E1,1.251964569E-1,-3.726911545E-1,6.141992807E-1
9.154249974E1,-8.190906048E-2,-2.554655075E-1,4.310644865E-1
9.164256637E1,1.199644804E-1,8.204336166E-1,1.647233963E-1
9.174264067E1,-5.772504210E-1,-6.256103516E-4,2.317923307E-1
9.184271197E1,-4.358950853E-1,1.409969330E-1,-2.478049994E-1
9.194278003E1,-3.853427768E-1,7.345113754E-1,5.555343628E-1
9.204284443E1,-3.560464382E-1,-1.011954308E0,-2.967538834E-1
9.214291113E1,-3.647231460E-1,2.881975174E-1,2.338286638E-1
9.224297779E1,5.760180950E-2,4.584026337E-1,1.467008948E0
9.234304079E1,-7.685089111E-2,-3.811445236E-1,4.713814259E-1
9.244310422E1,-5.387079716E-2,-2.329740524E-1,1.282573938E-1
9.254317645E1,5.210527182E-1,-1.989088058E-1,-2.888631821E-1
9.264324315E1,-4.710985422E-1,2.335090637E-1,-4.929430485E-1
9.274330808E1,4.153107405E-1,9.448146820E-2,5.434106588E-1
9.284337038E1,2.019423246E-1,-4.317064285E-1,2.848157883E-1
9.294343801E1,1.315493584E-1,3.421497345E-2,5.161736012E-1
9.304350670E1,-5.634375215E-1,1.005838394E0,-1.074943542E-1
9.314357377E1,-3.575949669E-1,-1.837396622E-1,2.488931417E-1
9.324364103E1,-2.158798575E-1,7.900524139E-2,-5.158874989E-1
9.334370823E1,-3.202452064E-1,-1.902332306E-1,-5.840296149E-1
9.344378183E1,-1.830246449E-1,-1.313495636E-1,-1.278263330E-1
9.354385333E1,3.877319098E-1,9.623422623E-1,6.175863743E-2
9.364391986E1,4.604423046E-2,-1.794071198E-1,2.011785507E-1
9.374397869E1,3.145258427E-1,2.355470657E-1,-4.687173367E-1
9.384404115E1,-2.149236202E-2,-5.866889954E-1,-3.498458862E-1
9.394410892E1,-8.784770966E-3,5.281858444E-1,-3.194949627E-1
9.404417851E1,3.190054893E-1,3.758306503E-1,-4.571303725E-1
9.414424604E1,4.999721050E-2,-9.905433655E-2,9.421542883E-1
9.424431318E1,1.668293476E-1,2.928276062E-1,2.535454035E-1
9.434437981E1,8.692264557E-2,4.533987045E-1,7.011450529E-1
9.444445017E1,-5.239688158E-1,-4.310674667E-1,-4.138469696E-2
9.454451730E1,-3.020710945E-1,5.408086777E-1,-2.118803263E-1
9.464458370E1,-2.090608478E-1,-6.493568420E-1,-3.426499367E-1
9.474464600E1,-9.747934341E-2,-3.452558517E-1,8.945765495E-1
9.484471310E1,4.529659748E-1,1.011352539E0,5.191321373E-1
9.494478083E1,2.917575836E-1,-5.281267166E-1,5.064022541E-2
9.504484966E1,-2.185137272E-1,-9.506797791E-2,4.791067839E-1
9.514491686E1,8.663357496E-1,3.856582642E-1,-2.558848858E-1
9.524498426E1,-2.463269234E-1,2.344379425E-1,-7.851755619E-2
9.534506069E1,-1.172168255E-1,-4.919519424E-1,3.699659109E-1
9.544512825E1,5.893515348E-1,1.355295181E-1,1.148108244E-1
9.554519575E1,-3.966977596E-1,6.538705826E-1,-2.010092735E-1
9.564525501E1,-3.266155720E-1,4.491233826E-2,7.205557823E-2
9.574532621E1,-6.098926663E-1,-6.485252380E-1,-4.109207392E-1
9.584532768E1,-9.699547291E-1,6.442193985E-1,-9.985499978E-1
9.594539300E1,-1.257491112E-2,1.135809898E0,3.448200226E-2
9.604546013E1,-8.289156556E-1,-3.627758026E-1,9.776929617E-1
9.614559226E1,-4.478120804E-2,3.287239075E-1,1.002132535E0
9.624566503E1,-2.222726345E-1,5.103588104E-1,-8.140039444E-2
9.634572766E1,4.346060753E-2,-7.045698166E-1,-2.350492477E-1
9.644579469E1,3.467702866E-2,-4.665603638E-1,3.456482887E-1
9.654585612E1,1.690816879E-2,5.583372116E-1,3.855911493E-1
9.664592862E1,9.802269936E-2,-1.243352890E0,4.269881248E-1
9.674599428E1,4.202730656E-1,1.898565292E-1,5.908926725E-1
9.684606115E1,-1.272006035E-1,1.254603386E0,4.384279251E-2
9.694612221E1,-5.527074337E-1,-1.328406334E0,6.095881462E-1
9.704619167E1,-6.005266905E-1,1.624962807E0,-5.625530481E-1
9.714625890E1,-4.451547861E-1,-4.914340973E-1,-1.059559584E0
9.724632757E1,-7.709442973E-1,6.898107529E-1,4.190204144E-1
9.734639470E1,1.693356037E-1,-1.857261658E-1,8.257369995E-1
9.744646236E1,-2.229785919E-1,-5.232763290E-1,8.540537357E-1
9.754653206E1,2.361627817E-1,2.794370651E-1,8.738431931E-1
9.764659769E1,3.270142078E-1,7.014989853E-1,2.567577362E-2
9.774666329E1,-1.821959019E-2,-1.423480988E0,4.113479853E-1
9.784672845E1,3.176417351E-1,1.588568687E0,8.213007450E-2
9.794679665E1,-7.810831070E-3,-4.480447769E-1,-3.870084286E-1
9.804686551E1,2.908629179E-1,-1.298671722E0,-5.184292793E-3
9.814693125E1,5.872496367E-1,1.406660080E0,-3.236544132E-2
9.824699828E1,-2.061311007E-1,5.704545975E-1,-3.935995102E-1
9.834706458E1,-8.060624599E-1,-6.750593185E-1,4.602241516E-2
9.844713614E1,-4.661859274E-1,5.382118225E-1,-6.662771702E-1
9.854720327E1,-9.423508644E-1,-1.881294250E-1,-5.436124802E-1
9.864727004E1,-4.509780407E-1,-8.873176575E-2,9.891200066E-2
9.874733080E1,-6.208419800E-4,2.126045227E-1,6.507134438E-1
9.884743111E1,-3.780945539E-1,2.540884018E-1,8.270514011E-2
9.894749887E1,2.562921047E-1,3.635377884E-1,1.268874407E-1
9.904756787E1,-4.916787148E-2,-4.004478455E-3,9.304285049E-4
9.914763530E1,3.006072044E-1,-3.360795975E-1,8.432285786E-1
9.924770313E1,3.585100174E-3,-2.267694473E-1,-1.356158257E-1
9.934777023E1,6.147261858E-1,-3.035831451E-2,7.280957699E-2
9.944783697E1,2.652170658E-1,3.355693817E-1,5.485240221E-1
9.954791693E1,2.942799330E-1,5.247325897E-1,3.615633249E-1
9.964798399E1,7.629394531E-6,-1.053827286E0,5.071076155E-1
9.974805389E1,-5.333390236E-1,1.609659195E0,-1.477931738E0
9.984810729E1,-3.798859715E-1,-9.750719070E-1,-1.042816758E0
9.994817479E1,-2.804574370E-1,5.879650116E-1,-3.891396523E-1
1.000482388E2,-1.260232925E-1,-5.422134399E-1,8.071529865E-2
1.001483066E2,5.797183514E-2,2.853069305E-1,5.385961533E-1
1.002483734E2,-5.006170273E-2,1.382185936E0,2.842237949E-1
1.003484449E2,-2.891924381E-1,-1.308081627E0,-1.199958324E-1
1.004485178E2,-6.357645988E-2,7.558975220E-1,-2.687978745E-2
1.005485849E2,-3.479034901E-1,-4.027433395E-1,-9.433603883E-1
1.006486472E2,-1.739584208E-1,4.235076904E-1,1.558049917E-1
1.007487074E2,5.015417337E-1,6.205005646E-1,1.143931031E0
1.008487752E2,-7.124137878E-2,-1.874485016E-1,6.096419096E-1
1.009488432E2,-6.353092194E-1,-2.050352097E-1,2.080003023E-1
1.010489135E2,-4.071965218E-1,7.683429718E-1,-1.370689869E-1
1.011489803E2,-4.204730392E-1,3.224601746E-1,-1.934391260E-1
1.012490475E2,-1.157412529E-1,-1.565810204E0,5.223885775E-1
1.013491197E2,-1.314783096E-2,1.624436378E0,-2.063506842E-1
1.014491863E2,4.506292343E-1,-1.482400894E-1,7.945785522E-1
1.015492535E2,-1.627805233E-1,8.486013412E-1,2.869260311E-2
1.016493124E2,7.743775845E-2,-5.248537064E-1,5.366146564E-2
1.017493781E2,3.909001350E-1,-8.101348877E-1,-5.014873743E-1
1.018494489E2,-1.902774572E-1,6.680774689E-1,-7.484515309E-1
1.019495175E2,-2.442743778E-1,-3.223094940E-1,-2.434890270E-1
1.020495868E2,-1.076924801E-2,2.410717010E-1,1.017532229E0
1.021496501E2,-1.288658381E-1,1.179792404E0,-3.416241407E-1
1.022497169E2,-4.290430546E-1,-1.261574745E0,4.554830790E-1
1.023497842E2,-8.915252686E-1,1.326138496E0,-9.243130684E-3
1.024498579E2,-3.334386349E-1,-8.889255524E-1,-4.050787091E-1
1.025499272E2,-2.077702284E-1,3.622179031E-1,4.193176031E-1
1.026499936E2,-2.810131311E-1,-1.788005829E-1,6.049121618E-1
1.027500528E2,4.366862774E-2,-2.673788071E-1,1.142935753E-1
1.028501194E2,4.382895231E-1,9.300432205E-1,4.946894646E-1
1.029501862E2,1.430981159E-1,-3.327159882E-1,-1.060190201E-1
1.030502552E2,3.852012157E-1,-4.693775177E-1,6.277773380E-1
1.031503205E2,4.175267220E-1,7.130336761E-2,-1.831668615E-1
1.032503931E2,2.791484594E-1,2.044839859E-1,1.101326942E-2
1.033504606E2,5.940855742E-1,-5.271129608E-1,9.343860149E-1
1.034505280E2,-2.677464485E-2,9.836559296E-1,1.610881090E-1
1.035505961E2,-2.771782875E-1,-5.591831207E-1,2.461141348E-1
1.036506685E2,-9.706448913E-1,7.257156372E-1,-3.017104864E-1
1.037507398E2,-1.550892591E-1,-4.213933945E-1,3.944420815E-2
1.038508020E2,-4.619939327E-1,-3.928050995E-1,-3.861737251E-2
1.039508638E2,-2.610723972E-1,4.978237152E-1,4.964282513E-1
1.040509276E2,8.473718166E-2,-5.411815643E-1,4.723836184E-1
1.041509930E2,-5.520498753E-2,7.463550568E-1,-1.944894791E-1
1.042510591E2,2.838742733E-1,-4.842634201E-1,-7.505828142E-1
1.043511251E2,1.827707291E-1,8.864269257E-1,-3.381664753E-1
1.044511995E2,-1.159375906E-1,-1.549434662E-2,-8.138864040E-1
1.045512675E2,6.853271723E-1,-2.923107147E-2,1.742321253E-1
1.046513347E2,1.690820456E-1,1.424617767E-1,2.304029465E-1
1.047513940E2,-3.735555410E-1,1.529625893E0,7.268251181E-1
1.048514735E2,2.139892578E-1,-1.338658333E0,2.673070431E-1
1.049515445E2,-9.402201176E-1,1.052465439E0,-5.170774460E-1
1.050516122E2,-9.607470036E-2,-1.432580948E-1,-6.394581795E-1
1.051516666E2,-1.646996737E-1,1.949977875E-1,1.782461405E-1
1.052517302E2,-4.502419233E-1,8.101749420E-2,1.270914674E0
1.053518025E2,-5.722050667E-1,3.133687973E-1,-1.116181612E-1
1.054518725E2,2.561368942E-1,7.357120514E-2,4.245558977E-1
1.055519395E2,-3.172729015E-1,-3.779039383E-1,7.104027271E-2
1.056520070E2,-9.124326706E-2,3.380527496E-1,5.210763216E-1
1.057520697E2,-6.143403053E-2,-1.258955002E-1,-2.831944227E-1
1.058521370E2,1.716721058E-1,-8.924770355E-2,1.494045258E-1
1.059521994E2,2.701714039E-1,3.136749268E-1,1.039796472E0
1.060523360E2,3.191970587E-1,-1.095495224E-1,1.021420956E-2
1.061524031E2,-2.163116932E-1,-7.855310440E-1,2.747101784E-1
1.062524698E2,-9.345539808E-1,7.138757706E-1,-8.595502377E-2
1.063525378E2,1.334024668E-1,-4.107694626E-1,-3.059132099E-1
1.064526097E2,1.120023727E-1,-2.478485107E-1,3.441547155E-1
1.065526777E2,-3.446079493E-1,1.086668015E0,-6.475202441E-1
1.066527477E2,8.685227633E-1,7.195367813E-1,-8.524319530E-1
1.067528082E2,-4.773297310E-1,-6.733236313E-1,1.390274405E0
1.068528746E2,1.131352544E0,-2.671012878E-1,-3.641085625E-1
1.069529412E2,5.084103346E-1,-4.483985901E-2,-2.911976576E-1
1.070530101E2,3.317964077E-2,7.996482849E-1,2.563910484E-1
1.071530769E2,3.581838608E-1,-5.550613403E-1,9.323954582E-2
1.072531410E2,-1.426041126E-1,3.676986694E-1,8.108787537E-1
1.073532079E2,3.193290234E-1,6.223173141E-1,-5.052461624E-1
1.074532753E2,-9.783456922E-1,-2.231063843E-1,1.782301664E-1
1.075533427E2,-5.054657459E-1,9.688339233E-1,1.587459683E0
1.076534126E2,-3.103054762E-1,-9.828433990E-1,1.019138575E0
1.077534778E2,-1.019395709E0,-7.768936157E-1,1.184397340E0
1.078535444E2,9.957919121E-1,2.271492004E0,3.967739344E-1
1.079536091E2,-2.605319023E-1,-1.724521160E0,-5.920020938E-1
1.080536781E2,1.999305487E-1,1.416188240E0,4.135631323E-1
1.081537457E2,2.599906921E-1,-1.468939781E0,-8.385652304E-1
1.082538187E2,2.400904894E-1,7.709445953E-1,5.512428284E-1
1.083538917E2,1.308130026E-1,-7.273387909E-2,4.102736712E-1
1.084539636E2,2.517400980E-1,-5.492553711E-1,7.754981518E-2
1.085540250E2,5.036393404E-1,4.981365204E-1,9.305424690E-1
1.086540851E2,-6.529116631E-2,1.305211067E0,-1.536642313E-1
1.087541509E2,-1.003269672E0,-5.997066498E-1,4.650236368E-1
1.088542180E2,2.289717197E-1,1.271457672E-1,-3.800703287E-1
1.089542860E2,-2.170131207E-1,-4.829902649E-1,-4.174693823E-1
1.090543497E2,-5.585505962E-1,-4.274015427E-1,7.208287716E-1
1.091544168E2,3.658354282E-1,1.232240677E0,5.143806934E-1
1.092544842E2,2.625834942E-1,-4.485664368E-1,4.954988956E-1
1.093545508E2,-3.727434874E-1,3.294801712E-1,3.947198391E-2
1.094546176E2,-1.625516415E-1,2.341604233E-1,-2.587476969E-1
1.095546849E2,3.604831696E-1,-6.509437561E-1,1.189929247E-1
1.096547517E2,-7.572698593E-2,6.549634933E-1,5.836412907E-1
1.097548173E2,-4.807413816E-1,-2.236576080E-1,2.084041834E-1
1.098548840E2,6.147146225E-2,-2.001647949E-1,4.000592232E-1
1.099549521E2,-4.781600237E-1,5.848455429E-1,6.270797253E-1
1.100550211E2,-1.021504879E0,-1.703567505E-1,-9.095878005E-1
1.101550885E2,1.670941114E-1,-2.506847382E-1,-1.206213593E0
1.102551558E2,-2.749560475E-1,6.424074173E-1,-1.925230026E-3
1.103552226E2,-2.826318145E-1,-5.686159134E-1,1.885648966E-1
1.104552896E2,9.683148861E-1,1.202099800E0,-1.292465925E-1
1.105553564E2,5.520260334E-2,-4.019346237E-1,-3.257160187E-1
1.106554225E2,4.479972124E-1,-1.447534561E-1,2.454264164E-1
1.107554898E2,-1.631820202E-2,-1.429405212E-1,-6.547622681E-1
1.108555571E2,6.194925308E-2,-9.016227722E-2,-3.457913399E-1
1.109556256E2,6.372114420E-1,6.119966507E-1,-1.414515972E-1
1.110556916E2,-9.128475189E-2,2.462482452E-2,3.906202316E-1
1.111557586E2,-4.368472099E-1,8.809337616E-1,3.192512989E-1
1.112558255E2,-2.251213789E-1,1.665363312E-1,2.509534359E-1
1.113558952E2,-8.860985041E-1,3.308296204E-3,4.393700361E-1
1.114559626E2,-6.972543001E-1,-2.456550598E-1,-5.017000437E-1
1.115560331E2,-7.638331056E-1,2.866792679E-1,-1.427700520E-1
1.116560979E2,-1.880462170E-1,1.192178726E-1,8.494369984E-1
1.117561638E2,-1.269229650E-1,4.532222748E-1,3.832819462E-1
1.118562334E2,-3.498495817E-1,-1.188201904E-1,4.374568462E-1
1.119563015E2,3.005325794E-1,-1.880159378E-1,-4.036319256E-1
1.120563708E2,2.585315704E-2,4.032516479E-2,1.799942255E-1
1.121564324E2,2.765647173E-1,-6.615858078E-1,-5.565711260E-1
1.122564998E2,1.133982182E0,8.753309250E-1,-1.892828941E-1
1.123565659E2,4.452806711E-1,-5.948810577E-1,-2.093042135E-1
1.124566368E2,5.592682362E-1,9.249238968E-1,3.628244400E-1
1.125567048E2,-1.334120333E-1,5.359935760E-2,-4.739928246E-1
1.126567765E2,2.645077109E-1,-3.113632202E-1,-2.396384478E-1
1.127568382E2,-5.423444510E-2,6.851329803E-1,-3.740569353E-1
1.128569061E2,3.380544186E-1,-8.678722382E-1,3.732285500E-1
1.129569690E2,-1.404265165E-1,2.302427292E-1,8.248425722E-1
1.130570374E2,9.208059311E-2,8.462076187E-1,1.941514015E-2
1.131571026E2,1.355898380E-1,-5.655097961E-2,1.014363766E-2
1.132571697E2,7.351815701E-2,8.134555817E-2,4.625053406E-1
1.133573479E2,1.728141308E-1,-5.465822220E-1,-2.709499598E-1
1.134574157E2,1.067259312E-1,4.159069061E-2,-1.192762852E-1
1.135574826E2,-5.858540535E-3,9.762573242E-2,1.311659813E-1
1.136575469E2,3.750436306E-1,-2.691106796E-1,5.706180334E-1
1.137576121E2,7.593119144E-2,3.269538879E-1,-2.016137838E-1
1.138576790E2,-6.276130080E-1,-3.158054352E-1,3.722506762E-1
1.139577473E2,-3.724863529E-1,5.364112854E-1,-4.396345615E-1
1.140578157E2,-7.884786129E-1,7.590541840E-1,-1.237618685E0
1.141578832E2,-7.206346989E-1,-5.880374908E-1,-3.531798124E-1
1.142579503E2,-1.633063555E-1,1.030035019E-1,7.078938484E-1
1.143580176E2,6.778562069E-1,1.404070854E0,4.675915241E-1
1.144580887E2,-6.915702820E-1,-1.403664589E0,1.087049246E-1
1.145581566E2,6.265163422E-2,1.082042694E0,-3.143068552E-1
1.146582226E2,1.988919973E-1,-5.924882889E-1,-2.479380369E-1
1.147582869E2,-3.725376129E-1,2.610940933E-1,-2.347164154E-1
1.148583533E2,1.647852659E-1,1.280307770E-1,6.394364834E-1
1.149584222E2,2.254929543E-1,1.346406937E-1,8.040554523E-1
1.150584885E2,-4.464410543E-1,-4.103374481E-1,-1.277316809E-1
1.151585559E2,-4.218255281E-1,9.946517944E-1,-1.205782890E-1
1.152586226E2,-7.242676616E-1,3.629703522E-1,2.156661749E-1
1.153586894E2,-1.106285214E0,-1.049986839E0,-3.114869595E-1
1.154587566E2,-3.649832010E-1,1.300361633E0,-1.129268169E0
1.155588233E2,-1.451622248E-1,-9.808197021E-1,-1.210893393E-1
1.156588891E2,-9.509519935E-1,2.832946777E-1,1.453204632E0
1.157589545E2,5.094031096E-1,1.073876381E0,-6.603820324E-1
1.158590214E2,1.380398273E-1,-1.057592392E0,-3.214088678E-1
1.159590928E2,-3.001973629E-1,1.524538040E0,-1.100704670E-1
1.160591634E2,-1.678657532E-1,-5.503854752E-1,-6.259230971E-1
1.161592308E2,6.030538082E-1,3.730678558E-2,6.937546730E-1
1.162592952E2,1.437906027E-1,-6.754779816E-1,3.318281174E-1
1.163593664E2,4.297244549E-1,3.709421158E-1,6.292256117E-1
1.164594327E2,-4.253964424E-1,-3.092765808E-2,-3.315482140E-1
1.165595007E2,-9.413702488E-1,2.223024368E-1,-1.747351885E-1
1.166595605E2,-4.320573211E-1,-8.794126511E-1,-8.874815702E-1
1.167596272E2,-1.018676281E0,1.046869278E0,-5.723431110E-1
1.168596993E2,-1.858996153E-1,4.883098602E-2,2.072012424E-1
1.169597683E2,-3.410117626E-1,-1.241950035E0,2.089820385E0
1.170598370E2,3.479764462E-1,1.660633087E0,5.675004721E-1
1.171599018E2,-6.709456444E-3,-3.327693939E-1,-1.723567247E-1
1.172599684E2,-3.422307968E-1,2.017641068E-1,-1.188004017E-1
1.173600352E2,2.791432142E-1,-1.651010513E-1,7.651960850E-2
1.174601017E2,-2.496397495E-1,-1.217460632E-1,-3.252731562E-1
1.175601705E2,4.273425341E-1,1.177539825E-1,1.040405035E-1
1.176602362E2,2.550128698E-1,-3.904962540E-1,1.301637888E-1
1.177603005E2,-2.864215374E-1,1.879367828E-1,4.981985092E-1
1.178603654E2,-3.090714812E-1,1.061016083E0,-4.456832409E-1
1.179604392E2,-6.238579750E-1,-3.767948151E-1,-3.962107897E-1
1.180605108E2,-1.044561863E-1,-3.033638000E-1,-1.044076681E-1
1.181605785E2,-2.292113900E-1,1.835419655E0,4.795472622E-1
1.182606404E2,2.262687683E-2,-1.430649757E0,7.153223753E-1
1.183607024E2,1.924276352E-3,1.579332352E-1,7.445174456E-1
1.184607744E2,1.866078377E-2,9.221639633E-1,-1.375001431E0
1.185608412E2,1.764899492E-1,-1.614150524E0,-7.209493518E-1
1.186609120E2,9.437044859E-1,1.307106018E0,-1.098499894E0
1.187609728E2,-1.283075809E-1,-2.489757538E-1,-5.194675922E-1
1.188610405E2,2.232502699E-1,-6.686239243E-1,2.454631329E-1
1.189611040E2,3.615043163E-1,3.248310089E-1,3.778332472E-1
1.190611757E2,9.120965004E-2,1.447381973E-1,1.259108782E-1
1.191612535E2,1.224291325E-1,-7.458209991E-2,-1.879734993E-1
1.192613209E2,-4.043118358E-1,1.092143059E0,-4.110394716E-1
1.193613857E2,-9.507265091E-1,-4.244937897E-1,-4.440768957E-1
1.194614464E2,-4.081869125E-2,3.306169510E-1,-3.478600979E-1
1.195615132E2,-6.386860013E-1,-4.211549759E-1,4.281634092E-1
1.196615784E2,-5.231601000E-1,2.896308899E-1,3.803418875E-1
1.197616395E2,1.140047312E-1,8.924484253E-2,2.499128580E-1
1.198617093E2,-3.489017487E-3,5.117473602E-1,3.000735044E-1
1.199617777E2,-2.156822681E-1,-5.879888535E-1,-2.910499573E-1
1.200618465E2,-5.384135246E-2,-4.188709259E-1,2.610898018E-1
1.201619132E2,2.038979530E-2,-1.828832626E-1,-2.354685068E-1
1.202619802E2,1.934454441E-1,-2.705469131E-1,-2.451193333E-2
1.203620470E2,3.183553219E-1,6.474580765E-1,9.081341028E-1
1.204621118E2,-2.221325636E-1,-6.357927322E-1,5.141527653E-1
1.205621810E2,-3.557193279E-1,9.155750275E-1,7.969081402E-1
1.206622963E2,-4.593374133E-1,-6.638526917E-2,-4.732497931E-1
1.207623625E2,-5.359781981E-1,-5.406951904E-2,4.367458820E-2
1.208624285E2,6.328010559E-2,-1.588716507E-1,-1.738945246E-1
1.209624967E2,-3.193100691E-1,5.653285980E-2,-2.633311749E-1
1.210625652E2,-4.026806355E-1,5.410194397E-2,8.525743484E-1
1.211626315E2,-5.657688379E-1,3.392896652E-1,-5.034649372E-2
1.212626992E2,5.245990753E-1,1.452741623E-1,-1.752020121E-1
1.213627664E2,-2.355344296E-1,-5.594377518E-1,-7.645757794E-1
1.214628332E2,-1.066403389E-1,4.591159821E-1,-1.211001515E0
1.215628998E2,-9.000682831E-2,5.232715607E-2,-3.740642071E-1
1.216629656E2,-2.074666023E-1,9.804182053E-1,8.695613146E-1
1.217630315E2,2.938640118E-1,1.288957596E-1,3.839929104E-1
1.218631055E2,-1.125171185E-1,-5.280294418E-1,5.206574202E-1
1.219631803E2,-6.401600838E-1,8.495721817E-1,3.578106165E-1
1.220632490E2,-4.279637337E-1,-2.457590103E-1,6.003737450E-3
1.221633093E2,-3.075228333E-1,-7.461338043E-1,6.246398687E-1
1.222633700E2,-3.141590953E-1,4.666175842E-1,-4.284477234E-2
1.223634369E2,-7.035541534E-2,-2.365226746E-1,6.806690693E-1
1.224635041E2,3.236277103E-1,5.442199707E-1,-3.114740849E-1
1.225635713E2,3.344577551E-1,1.570205688E-1,1.927429438E-1
1.226636375E2,1.960827112E-1,-2.533578873E-1,-3.697121143E-2
1.227637023E2,9.953320026E-2,-8.679962158E-2,1.844326258E-1
1.228637728E2,3.713376522E-1,-3.000822067E-1,-6.092386246E-1
1.229638448E2,3.793699741E-1,-3.834152222E-2,3.225207329E-2
1.230639140E2,6.980201006E-1,5.845890045E-1,1.246237278E0
1.231639779E2,1.220054626E-1,-3.045063019E-1,2.317450047E-1
1.232640418E2,-6.612025499E-1,-1.377372742E-1,5.494047403E-1
1.233641090E2,-4.245815873E-1,2.612400055E-1,-9.847738743E-1
1.234641766E2,-7.995460033E-1,2.559061050E-1,-7.486343384E-4
1.235642433E2,-2.802765369E-2,-9.511203766E-1,-3.354050517E-1
1.236643096E2,-6.020588875E-1,8.106012344E-1,-4.942464828E-2
1.237643752E2,1.198785305E-1,-6.373405457E-2,3.419063091E-1
1.238644486E2,-8.403050900E-2,3.614158630E-1,-4.493117332E-2
1.239645165E2,-3.476181030E-1,-8.383159637E-1,1.367082596E-1
1.240645846E2,8.945531845E-1,9.748916626E-1,-9.330914617E-1
1.241646453E2,2.056162357E-1,6.392097473E-2,2.918570042E-1
1.242647132E2,-3.678704500E-1,-5.130834579E-1,4.114580154E-1
1.243647809E2,4.979572296E-1,1.087532043E-1,2.281918526E-1
1.244648491E2,5.464208126E-2,9.278841019E-1,-6.578296423E-1
1.245649153E2,4.484128952E-2,9.098052979E-3,4.901643991E-1
1.246649872E2,5.004763603E-3,5.853958130E-1,-2.297698259E-1
1.247650519E2,-6.699830890E-1,-7.811336517E-1,-1.848489046E-1
1.248727238E2,-3.331292868E-1,-4.144344330E-1,2.732241154E-2
1.249791255E2,1.327073574E-2,6.167211533E-1,-3.232887983E-1
1.250855306E2,5.061078072E-2,-1.023116112E0,1.881993294E0
1.251953439E2,6.636300087E-1,1.794284821E0,-1.985373497E-1
1.252954131E2,-5.241267681E-1,-2.938734055E0,-6.995704770E-1
1.253954808E2,8.267090321E-1,3.006498337E0,-1.275539875E0
1.254955411E2,-3.382544518E-1,-9.436254501E-1,7.581448555E-2
1.255956053E2,-3.012058735E-1,-1.074469566E0,7.802428007E-1
1.256956739E2,7.120174170E-1,4.988527298E-1,-3.617688417E-1
1.257957410E2,2.518677711E-2,1.024515152E0,4.484728575E-1
1.258958083E2,-6.658399105E-2,-6.322479248E-2,1.028571248E0
1.259958748E2,-4.762402773E-1,-7.278862000E-1,6.121302843E-1
1.260959424E2,-7.013868093E-1,1.558176041E0,-8.934371471E-1
1.261960101E2,2.283761501E-1,-5.819272995E-1,-1.288408041E-1
1.262960758E2,-7.528829575E-2,-9.896097183E-1,-6.435358524E-2
1.263961427E2,-9.125673771E-2,7.600393295E-1,2.053939104E-1
1.264962092E2,4.813138247E-1,-8.687877655E-2,3.747060299E-1
1.265962768E2,3.582938910E-1,5.322914124E-1,2.548816204E-1
1.266963418E2,1.426182985E-1,-3.933649063E-1,-6.177223921E-1
1.267964084E2,7.130392790E-1,1.429481506E-1,-1.025660038E-1
1.268964759E2,2.172929049E-1,-1.240673065E-1,1.701941490E-1
1.269965455E2,2.628445625E-1,-3.277616501E-1,-6.755173206E-2
1.270966133E2,3.858700991E-1,7.800960541E-2,4.436770678E-1
1.271966801E2,-1.292524338E-1,3.111467361E-1,-1.265432835E-1
1.272967470E2,-8.992183208E-2,-5.530242920E-1,2.605851889E-1
1.273968196E2,-8.119970560E-1,1.219210625E0,-1.179220676E-1
1.274968905E2,-9.459637403E-1,-2.524862289E-1,8.542776108E-3
1.275969575E2,-1.838475466E-1,2.612352371E-1,1.829099655E-2
1.276970172E2,-6.881662011E-1,-7.470626831E-1,2.175253630E-1
1.277970818E2,-7.858511209E-1,6.686115265E-1,3.540409803E-1
1.278972696E2,-3.747006655E-1,2.292671204E-1,6.285849810E-1
1.279973394E2,-2.065206766E-1,-5.093488693E-1,2.513906956E-1
1.280974052E2,-8.518099785E-2,1.637350082E0,-9.754047990E-1
1.281974731E2,-5.644718409E-1,-1.375725746E0,-3.307048082E-1
1.282975449E2,-6.299026012E-1,8.139572144E-1,-1.203023195E-1
1.283976131E2,-4.215053320E-1,-1.509437561E-1,1.579343081E-1
1.284976767E2,1.208095551E-1,2.897529602E-1,4.767389297E-1
1.285977383E2,2.149950266E-1,-4.777736664E-1,2.777854204E-1
1.286978026E2,1.715888977E-1,2.458915710E-1,1.080466509E-1
1.287978694E2,-7.910710573E-1,-3.460426331E-1,-8.184823990E-1
1.288979372E2,-4.319196939E-2,1.101517677E0,-6.542350054E-1
1.289980108E2,1.493256092E-1,-3.826808929E-1,2.603865862E-1
1.290980787E2,-3.719085455E-1,6.733512878E-2,2.987658978E-2
1.291981466E2,4.131428003E-1,-2.746009827E-2,8.169815540E-1
1.292982091E2,-1.845471859E-1,-4.087820053E-1,4.529739618E-1
1.293982759E2,-8.921623230E-4,2.787981033E-1,6.763246059E-1
1.294983416E2,5.501804352E-1,2.989177704E-1,-9.007712603E-1
1.295984087E2,1.364638805E-1,-4.674930573E-1,3.156661987E-3
1.296984736E2,3.891439438E-1,-1.849174500E-3,-4.736506939E-2
1.297985462E2,1.025917530E-1,-2.899646759E-2,7.388353348E-3
1.298986133E2,6.603419781E-2,-1.761302948E-1,6.754550934E-1
1.299986827E2,2.300381660E-3,5.134563446E-1,5.261334181E-1
1.300987443E2,-1.037364006E-1,-5.170383453E-1,-5.432389975E-1
1.301988122E2,-4.569005966E-1,1.220775604E0,-4.679238796E-2
1.302988797E2,-4.299764633E-1,-9.261913300E-1,-1.587892771E-1
1.303989497E2,-1.387856007E-1,6.276960373E-1,-8.608591557E-2
1.304990160E2,-6.943447590E-1,-6.154413223E-1,1.244452000E-1
1.305990828E2,4.141800404E-1,-6.759166718E-2,6.042830944E-1
1.306991450E2,-2.852611542E-1,5.836725235E-1,6.359537840E-1
1.307992125E2,-1.019442081E-2,4.557151794E-1,-3.863301277E-1
1.308992795E2,3.109576702E-1,8.363342285E-2,-3.322327137E-1
1.309993487E2,-1.104946136E-1,-8.490276337E-2,-3.668663502E-1
1.310994157E2,-4.988741875E-2,-9.948062897E-2,-1.298111677E-1
1.311994827E2,-2.506507635E-1,9.942150116E-2,1.310998201E-1
1.312995496E2,4.304081202E-1,-3.297996521E-2,1.838768721E-1
1.313996165E2,1.673487425E-1,1.790714264E-1,5.000766516E-1
1.314996839E2,-3.096029758E-1,1.607780457E-1,8.522403240E-2
1.315997508E2,-6.764625311E-1,-3.308601379E-1,-1.802313328E-1
1.316998159E2,-6.438349485E-1,7.441043854E-1,-8.817686439E-1
1.317998821E2,-7.782340050E-3,-6.270380020E-1,-6.680754423E-1
1.318999494E2,3.292536736E-2,3.930854797E-1,-1.104612350E-1
1.320000239E2,-1.316761971E-2,1.695346832E-2,4.903544188E-1
1.321000983E2,2.299251556E-1,-1.178703308E-1,5.541863441E-1
1.322001656E2,1.415451765E-1,5.312032700E-1,1.961282492E-1
1.323002277E2,1.300973892E-1,2.996988297E-1,-6.914463043E-1
1.324002882E2,3.057456017E-2,-4.066028595E-1,-4.735696316E-2
1.325003554E2,9.777188301E-2,-5.586242676E-1,-1.992374659E-1
1.326004220E2,1.505196095E-1,7.692203522E-1,2.281969786E-1
1.327004882E2,-1.773630381E-1,2.976608276E-2,-4.758691788E-2
1.328005543E2,-4.133063555E-1,4.127683640E-1,-4.583594799E-1
1.329006248E2,-3.606197834E-1,4.500474930E-1,3.019523621E-2
1.330006939E2,-7.376589775E-1,-3.106441498E-1,-2.301603556E-1
1.331007622E2,-1.322062016E-1,6.585006714E-1,-1.631450653E-1
1.332008268E2,-2.702133656E-1,-4.820976257E-1,9.197950363E-2
1.333008931E2,-5.101616979E-1,1.953668594E-1,5.773155689E-1
1.334009644E2,2.853665352E-1,8.338804245E-1,5.707387924E-1
1.335010307E2,1.489865780E-2,1.049423218E-1,4.018938541E-1
1.336010980E2,5.985660553E-1,6.902046204E-1,-7.348284721E-1
1.337011626E2,2.660655975E-1,-6.135263443E-1,-2.869105339E-1
1.338012338E2,-1.805430651E-1,1.852989197E-1,-8.391853571E-1
1.339013015E2,3.249671459E-1,1.771068573E-2,2.739171982E-1
1.340013668E2,5.745182037E-1,1.107349396E-1,5.973386765E-1
1.341014322E2,2.022136450E-1,-2.675247192E-2,8.936047554E-2
1.342014995E2,-3.797423840E-2,7.099342346E-2,4.534559250E-1
1.343015721E2,-6.271678209E-1,3.362426758E-1,-2.486357689E-1
1.344016372E2,-5.264577866E-1,-5.437374115E-1,-5.652952194E-1
1.345017040E2,-5.969303846E-1,8.396978378E-1,-5.984300375E-1
1.346017730E2,-3.776420951E-1,-7.577066422E-1,4.339880943E-1
1.347018411E2,-3.513966799E-1,-8.688831329E-2,4.195429087E-1
1.348019076E2,-2.083327770E-1,-3.274908066E-1,1.720201015E0
1.349019674E2,-8.970654011E-2,-4.031429291E-1,6.215379238E-1
1.350020359E2,1.681019068E-1,5.843544006E-2,-5.659905076E-1
1.351021072E2,6.252801418E-2,2.225036621E-1,-4.008874893E-1
1.352021742E2,3.834712505E-1,-9.624481201E-3,6.564855576E-4
1.353022449E2,5.410324335E-1,5.586032867E-1,4.264855385E-2
1.354023123E2,3.176987171E-1,-3.432674408E-1,3.420798779E-1
1.355023795E2,4.023481607E-1,-6.645107269E-1,1.921381950E-1
1.356024412E2,-1.918244362E-1,1.636872292E0,-9.658277035E-2
1.357025122E2,5.472208261E-1,-4.546146393E-1,-3.649644852E-1
1.358025787E2,-7.387591600E-1,3.611021042E-1,6.785579920E-1
1.359026453E2,3.327953815E-2,-6.419734955E-1,-3.607603312E-1
1.360027085E2,4.789233208E-3,-3.980102539E-1,-8.864293098E-1
1.361027825E2,-6.167433858E-1,-1.631317139E-1,8.695935011E-1
1.362028505E2,1.551625729E-1,3.036375046E-1,-2.306389809E-2
1.363029185E2,6.448751688E-1,6.344490051E-1,1.219128132E0
1.364029793E2,-2.413887978E-1,1.274615288E0,-9.088199139E-1
1.365030458E2,-2.823520899E-1,-4.661029816E0,1.168544292E-1
1.366031131E2,1.498321295E0,4.555297852E0,-3.115316153E0
1.367031825E2,-1.261653543E0,-2.066857815E0,-9.394526482E-2
1.368032490E2,1.167318463E0,5.736923218E-1,8.646775484E-1
1.369033185E2,3.401744366E-2,1.104049683E0,-7.374905348E-1
1.370033834E2,-3.471484184E-1,-6.325979233E-1,1.072288275E0
1.371034536E2,-3.952085972E-1,1.000682831E0,-5.619260073E-1
1.372035180E2,-8.546123505E-1,-7.082576752E-1,-6.503726840E-1
1.373035850E2,-4.751142859E-1,3.689298630E-1,-9.599521160E-1
1.374036511E2,-1.119155884E-1,-5.376720428E-1,-3.355720043E-1
1.375037230E2,-4.895331264E-1,4.515638351E-1,5.629783869E-1
1.376037900E2,-1.399048567E-1,5.277185440E-1,6.312336922E-1
1.377038589E2,-3.599539995E-1,-4.440708160E-1,3.362511396E-1
1.378039202E2,-3.397700787E-1,7.429742813E-1,-2.406791449E-1
1.379039876E2,-3.127377033E-1,-8.102769852E-1,-2.093772888E-1
1.380040513E2,-6.115366220E-1,5.407066345E-1,-5.292838812E-1
1.381041190E2,1.886651516E-1,-4.302234650E-1,-6.614077091E-2
1.382041865E2,2.659595013E-1,5.540332794E-1,1.181440353E-1
1.383042539E2,-3.534053564E-1,5.764274597E-1,-1.092870235E-1
1.384043252E2,3.828207254E-1,-3.463649750E-2,6.096904278E-1
1.385043917E2,-1.858752966E-1,-9.212636948E-1,4.532334805E-1
1.386044641E2,-1.028369069E-1,1.128549576E-1,3.270483017E-2
1.387045264E2,-6.424242258E-2,5.136852264E-1,-1.694085598E-1
1.388045935E2,4.028336406E-1,-4.952259064E-1,7.702362537E-1
1.389046555E2,-2.477457523E-1,5.763635635E-1,1.556454301E0
1.390047234E2,3.514515162E-1,3.555583954E-1,3.166490793E-1
1.391047903E2,4.150720835E-1,-4.877862930E-1,1.345938444E-1
1.392048601E2,7.262578011E-1,-7.940578461E-2,-7.765309215E-1
1.393049269E2,7.041295767E-1,-5.738430023E-1,-4.029738903E-1
1.394049946E2,1.616535187E-1,-3.453922272E-1,-1.040391684E0
1.395050603E2,5.691180229E-1,7.138099670E-1,2.242374420E-2
1.396051284E2,6.951866150E-1,-7.734298706E-3,1.021450758E-1
1.397051930E2,1.866538525E-1,1.139640808E-1,5.155671835E-1
1.398052739E2,3.565328121E-1,2.994718552E-1,7.662067413E-1
1.399053460E2,-5.028066635E-1,-2.914285660E-1,-2.913883924E-1
1.400054153E2,2.103072405E-1,8.610343933E-1,1.683952808E-1
1.401054675E2,1.292669773E-1,1.810264587E-1,3.156063557E-1
1.402055289E2,8.135318756E-3,3.448390961E-2,1.639264345E0
1.403055959E2,-5.595397949E-2,-9.852409363E-2,7.053756714E-1
1.404056682E2,4.612625837E-1,8.942737579E-1,2.101284266E-1
1.405057361E2,4.036703110E-1,-3.237018585E-1,-2.393087149E-1
1.406058040E2,2.045482397E-1,1.321916580E-1,-4.543358088E-1
1.407058692E2,2.820886374E-1,6.270027161E-2,-4.607759714E-1
1.408059352E2,-1.171532869E-1,-4.799623489E-1,2.466731071E-1
1.409060016E2,4.304194450E-1,4.174327850E-1,8.681361675E-1
1.410060653E2,-4.305762053E-1,-8.014678955E-2,5.200328827E-1
1.411061324E2,-6.051489115E-1,4.053382874E-1,3.890666962E-1
1.412062006E2,-1.165076256E0,9.584770203E-1,-1.477494240E-1
1.413062687E2,-7.547056675E-1,-4.231891632E-1,1.240282059E-1
1.414063363E2,-4.384100437E-1,-3.112792969E-2,-1.097645044E0
1.415064026E2,-1.245709419E0,3.435077667E-1,-1.472338438E-1
1.416064686E2,-1.592673063E-1,-1.592826843E-2,-3.717339039E-2
1.417065384E2,2.470961809E-1,6.879816055E-1,6.554765701E-1
1.418066053E2,-2.569998503E-1,-2.377033234E-2,5.146193504E-2
1.419066743E2,9.571135044E-1,4.490242004E-1,-3.309504986E-1
1.420067394E2,-4.695103168E-1,-5.521888733E-1,5.452620983E-2
1.421068059E2,8.069703579E-1,1.605329514E-1,-6.794735193E-1
1.422068824E2,5.113523006E-1,-5.578927994E-1,-7.968213558E-1
1.423071042E2,3.650175333E-1,4.237108231E-1,4.149630070E-1
1.424071730E2,4.083099365E-1,2.616720200E-1,6.278442144E-1
1.425072294E2,2.927132845E-1,1.632976532E-2,2.194519043E-1
1.426072966E2,-9.573972225E-2,2.445077896E-1,-3.812422752E-1
1.427073606E2,-5.974543095E-1,9.392070770E-2,-2.718684673E-1
1.428074273E2,-6.818050742E-1,-5.679788589E-1,-1.657193899E-1
1.429074943E2,-7.754606009E-1,5.142364502E-1,-3.094482422E-2
1.430075647E2,-7.688720226E-1,-5.638179779E-1,9.517127275E-1
1.431076330E2,-3.920650482E-1,1.403903961E-1,1.111853123E0
1.432077006E2,1.655888557E-2,3.136920929E-2,4.503350258E-1
1.433077669E2,-7.429171801E-1,1.045494080E-1,2.212758064E-1
1.434078333E2,-8.724073172E-1,-4.040317535E-1,-5.208660364E-1
1.435079005E2,1.570537090E-1,1.366078377E0,-1.182713032E0
1.436079687E2,-5.967947245E-1,-3.216810226E-1,4.340200424E-1
1.437080340E2,1.388878822E-1,9.478473663E-2,7.074291706E-1
1.438081008E2,8.707451820E-2,-2.013902664E-1,-5.717240572E-1
1.439081671E2,-2.768887281E-1,8.369045258E-1,-3.853085041E-1
1.440082360E2,-1.090995073E-1,-2.381582260E-1,-1.913748980E-1
1.441083025E2,-1.059657335E-1,5.829582214E-1,-1.250330210E-1
1.442083696E2,-1.932644844E-1,-7.523155212E-1,7.576751709E-2
1.443084365E2,7.052495480E-1,7.998104095E-1,-5.913159251E-1
1.444085063E2,1.358331442E-1,-5.431528091E-1,2.163597345E-1
1.445085735E2,1.572709084E-1,-1.830854416E-1,2.322167158E-1
1.446086410E2,6.223837137E-1,-1.961622238E-1,-1.514844894E-1
1.447087047E2,4.785343409E-1,4.648408890E-1,4.199388027E-1
1.448087717E2,4.727784395E-1,7.464084625E-1,-4.058054686E-1
1.449088388E2,4.889788628E-1,-3.383779526E-1,-5.512605906E-1
1.450089066E2,6.981326342E-1,-9.842796326E-1,-5.993473530E-1
1.451089736E2,-2.579530478E-1,5.273685455E-1,-1.288074255E-1
1.452090414E2,7.668447495E-1,-4.676084518E-1,-7.784565687E-1
1.453091085E2,6.119068861E-1,2.549619675E-1,1.099982262E0
1.454091758E2,-1.799739599E-1,-6.505298615E-2,7.849845886E-1
1.455092479E2,1.108941436E0,3.876123428E-1,6.778266430E-1
1.456093157E2,-4.028332233E-1,8.806800842E-2,-2.545142174E-1
1.457093805E2,-9.747903347E-1,2.255086899E-1,-6.529655457E-1
1.458094451E2,7.031654119E-1,5.416603088E-1,-9.092736244E-2
1.459095117E2,1.306698322E-1,5.316944122E-1,2.265458107E-1
1.460095813E2,-1.058205366E-1,2.016668320E-1,5.111992359E-1
1.461096455E2,-2.323280573E-1,-5.718402863E-1,6.620411873E-1
1.462097136E2,-5.123972893E-1,6.047878265E-1,1.275680184E0
1.463097862E2,7.201869488E-1,3.362178802E-1,2.313332558E-1
1.464098533E2,1.470959187E-1,-2.990875244E-1,-4.118695259E-1
1.465099186E2,-3.768934011E-1,-2.307119370E-1,-9.800016880E-2
1.466099805E2,7.429909706E-2,-2.985286713E-2,-4.470622540E-2
1.467100503E2,4.055542946E-1,5.420408249E-1,-9.051838517E-1
1.468101173E2,-1.853477955E-2,4.670429230E-2,8.464468718E-1
1.469101841E2,7.141033411E-1,-5.605897903E-1,4.860769510E-1
1.470102485E2,4.241919518E-2,6.891288757E-1,-3.689121008E-1
1.471103169E2,-3.219279051E-1,-2.737159729E-1,-4.152109623E-1
1.472103842E2,-6.062808633E-1,5.709819794E-1,-5.407636166E-1
1.473104530E2,-6.100111604E-1,-7.908477783E-1,-1.059804201E0
1.474105273E2,-2.045007944E-1,4.423971176E-1,-7.550473809E-1
1.475105941E2,-9.451252818E-1,-8.047189713E-1,-1.051786423E0
1.476106593E2,5.413206816E-1,7.546072006E-1,-8.496375084E-1
1.477107171E2,-4.584813118E-1,-1.054601669E-1,7.292350531E-1
1.478107847E2,-1.372157335E-1,3.019304276E-1,9.112917185E-1
1.479108576E2,3.071346283E-1,5.612220764E-1,1.720148325E-1
1.480109269E2,4.192636013E-1,-1.284751892E-1,-3.456971645E-1
1.481109936E2,-3.852105141E-1,-2.595138550E-1,-2.655296326E-1
1.482110550E2,-5.187960863E-1,6.577510834E-1,-4.093466997E-1
1.483111222E2,3.421460390E-1,-4.911298752E-1,-4.185446501E-1
1.484111892E2,-1.224250793E-1,-1.436786652E-1,1.294775009E-1
1.485112630E2,-1.427252293E-1,3.858013153E-1,3.444135189E-1
1.486113296E2,3.506350517E-2,-7.251930237E-2,1.960698366E-1
1.487113947E2,-5.684848428E-1,2.757654190E-1,-6.966054440E-2
1.488114567E2,-8.572732210E-1,-2.898006439E-1,-2.418721914E-1
1.489115302E2,-7.769382000E-2,3.756990433E-1,1.683793068E-1
1.490116033E2,-7.648373246E-1,-7.204847336E-1,-9.452679753E-1
1.491116689E2,-3.480635881E-1,5.320863724E-1,3.299294114E-1
1.492117350E2,-1.601181030E-1,-3.656930923E-1,2.194840908E-1
1.493118055E2,-7.011532784E-3,3.454914093E-1,4.161731005E-1
1.494118739E2,6.880998611E-1,-6.574058533E-2,-5.468518734E-1
1.495119361E2,5.032470226E-1,1.187701225E0,-1.342774868E0
1.496121748E2,-2.382341623E-1,-5.988264084E-1,-1.241786480E-1
1.497122384E2,5.647766590E-2,2.598705292E-1,8.227646351E-2
1.498123184E2,5.622744560E-2,-3.483076096E-1,-8.598531485E-1
1.499123853E2,2.685271502E-1,4.718685150E-2,-6.357884407E-2
1.500124559E2,1.842188835E-2,3.561973572E-3,5.123633146E-1
1.501125110E2,-1.898717880E-2,7.118225098E-1,-2.105215788E-1
1.502125902E2,-1.966557503E-1,-1.370210648E-1,1.115932465E-1
1.503126567E2,-5.591270924E-1,4.709882736E-1,-1.236259937E-2
1.504127229E2,-9.473947883E-1,2.644634247E-2,-3.160592318E-1
1.505127785E2,-1.696542501E-1,2.184162140E-1,-6.121110320E-1
1.506128452E2,-1.136029243E0,1.206979752E-1,-4.007564783E-1
1.507129154E2,-6.422317028E-2,-3.293018341E-1,9.738870859E-1
1.508129850E2,-8.151465654E-1,-3.277587891E-2,1.216976047E0
1.509130577E2,-1.012300253E-1,9.087085724E-2,4.351612329E-1
1.510131215E2,4.381906986E-1,9.356889725E-1,-1.361612082E-1
1.511131858E2,-1.384754181E-1,-6.785316467E-1,-3.878796101E-2
1.512132533E2,-2.135065794E-1,5.786523819E-1,7.827460766E-2
1.513133275E2,4.390947819E-1,-9.521665573E-1,-1.707077026E-2
1.514133945E2,-3.822094202E-1,-3.262834549E-1,-3.714404702E-1
1.515134622E2,-5.143880844E-4,7.577924728E-1,5.386173725E-2
1.516135230E2,-1.082650423E-1,2.406482697E-1,1.735273600E-1
1.517135882E2,-6.518108249E-1,1.604909897E-1,1.833781004E-1
1.518136530E2,-2.936910391E-1,2.618989944E-1,-3.862418532E-1
1.519137197E2,-7.253907323E-1,-6.369876862E-2,-2.140378952E-2
1.520137898E2,-1.210796833E-1,4.343776703E-1,-1.158045530E-1
1.521138526E2,-1.133740067E0,-9.005680084E-1,-3.759007454E-1
1.522139198E2,1.466259956E-1,6.459712982E-2,-2.033895254E-1
1.523139868E2,1.064695120E-1,3.955554962E-2,6.070815325E-1
1.524140540E2,-1.128031015E-1,5.006513596E-1,-4.738748074E-2
1.525141241E2,4.131984711E-1,4.028606415E-2,-1.081128836E0
1.526141906E2,7.561966181E-1,5.114107132E-1,-7.789652944E-1
1.527142559E2,-5.961138010E-1,-6.359291077E-2,-2.703274488E-1
1.528143199E2,-1.763371229E-1,-1.062936783E-1,4.850114584E-1
1.529143876E2,4.246647358E-1,-9.567451477E-2,-9.010088444E-2
1.530144570E2,1.901574135E-1,-4.154109955E-2,1.140437126E-1
1.531145244E2,-5.043711662E-1,-4.907140732E-1,2.552866936E-1
1.532145973E2,4.881846905E-2,5.842018127E-1,-2.406278849E-1
1.533146643E2,-2.555392981E-1,6.142997742E-1,9.719132185E-1
1.534147316E2,-8.694852591E-1,-6.982717514E-1,1.406844020E0
1.535147921E2,-5.914743543E-1,-9.130859375E-2,-7.903885841E-2
1.536148600E2,-7.395955324E-1,-1.686840057E-1,-1.357669353E0
1.537149249E2,-3.873026371E-1,-6.733264923E-1,-7.716929913E-2
1.538149919E2,-8.037853241E-2,3.579339981E-1,-4.042857885E-1
1.539150581E2,3.729656935E-1,1.645011902E-1,-4.891531467E-1
1.540151310E2,1.201621294E-1,2.352037430E-1,-4.626981020E-1
1.541151987E2,7.329638004E-1,4.580974579E-1,-7.437869906E-1
1.542152660E2,-1.869438887E-1,-3.862018585E-1,-9.097774625E-1
1.543153329E2,5.240198374E-1,3.498821259E-1,-3.526574373E-1
1.544154021E2,5.465102196E-2,-3.264055252E-1,6.483197212E-2
1.545154692E2,3.088289499E-1,-4.273939133E-1,-4.513990879E-2
1.546155330E2,-2.109441757E-1,5.630445480E-1,5.698087215E-1
1.547155956E2,-9.677267075E-2,1.020917892E-1,7.018204927E-1
1.548156656E2,-5.161901712E-1,3.131523132E-1,2.913677692E-2
1.549157330E2,-9.435917139E-1,-2.505445480E-1,-7.196068764E-3
1.550158022E2,-7.167235017E-1,3.174352646E-1,-6.305720806E-1
1.551158668E2,-7.111378312E-1,-5.438003540E-1,-9.272921085E-2
1.552159331E2,-3.806437254E-1,4.217653275E-1,4.413167238E-1
1.553160050E2,-2.250586748E-1,3.500175476E-2,3.828853369E-1
1.554160718E2,-1.941325665E-1,3.333292007E-1,1.107264161E0
1.555161394E2,1.545519829E-1,6.203784943E-1,-6.501996517E-2
1.556162017E2,-7.730841637E-2,-1.659674644E0,-8.842119575E-1
1.557162668E2,1.383533478E-1,1.186098099E0,-8.563352823E-1
1.558163390E2,-2.113008499E-2,5.509614944E-1,-1.491190195E-1
1.559164114E2,-2.413808107E-1,-5.391712189E-1,3.878047466E-1
1.560164796E2,9.533739090E-2,1.456794739E-1,4.751501083E-1
1.561165416E2,-4.615163803E-2,4.890975952E-1,-4.052224755E-1
1.562166035E2,-2.417230606E-2,2.094192505E-1,-3.822660446E-1
1.563166723E2,-1.042776704E0,-8.453159332E-1,-2.914741635E-1
1.564167395E2,1.963025331E-1,8.506202698E-1,-1.700700521E-1
1.565168072E2,-7.248499393E-1,-2.002239227E-1,-5.169401765E-1
1.566168742E2,-2.128273249E-1,-9.487438202E-2,-7.336634398E-2
1.567169401E2,-5.386799574E-1,-1.319055557E-1,5.307831764E-1
1.568170057E2,3.202205896E-1,6.294097900E-1,3.038985729E-1
1.569171219E2,5.010205507E-1,-5.235137939E-1,-1.031376123E-1
1.570171903E2,-2.251350880E-1,8.410778046E-1,5.364954472E-2
1.571172592E2,2.370734215E-1,-4.903440475E-1,6.157588959E-2
1.572173266E2,4.334807396E-3,4.396047592E-1,-3.694463968E-1
1.573173975E2,4.375823736E-1,-3.782329559E-1,4.301176071E-1
1.574174642E2,-3.439724445E-2,-6.748676300E-2,1.936942339E-1
1.575175311E2,2.183402777E-1,2.148141861E-1,3.756415844E-1
1.576176001E2,2.783650160E-1,5.951480865E-1,4.360134602E-1
1.577176650E2,-3.618541360E-1,-6.871757507E-1,-4.076436758E-1
1.578177336E2,-8.941793442E-1,3.380098343E-1,-4.538416862E-2
1.579177952E2,-1.184800863E-1,4.524860382E-1,8.037388325E-2
1.580178642E2,2.622354031E-1,-4.509973526E-1,-7.073271275E-1
1.581179300E2,-7.026767135E-1,4.066858292E-1,1.193016887E0
1.582179977E2,4.633498192E-2,3.518438339E-1,3.516554832E-2
1.583180653E2,-4.571330547E-2,3.622150421E-1,4.662828445E-1
1.584181321E2,-3.601843119E-1,6.696510315E-2,-3.928689361E-1
1.585181986E2,6.489615440E-1,5.546503067E-1,-9.558303356E-1
1.586182701E2,-4.409933090E-1,2.023134232E-1,-4.715013504E-2
1.587183399E2,-2.061731815E-1,-2.503309250E-1,-5.277947783E-1
1.588184066E2,3.310271502E-1,3.587026596E-1,-3.456221223E-1
1.589184694E2,1.655137539E-2,-6.393814087E-2,7.428696156E-1
1.590185357E2,-6.057169437E-1,-1.072753906E0,-3.385871649E-1
1.591186085E2,-2.862592936E-1,2.633561134E0,-9.428381920E-1
1.592186753E2,-8.161041737E-1,-1.232687950E0,-2.469463348E-1
1.593187436E2,-3.271245956E-1,4.942674637E-1,6.703596115E-1
1.594188099E2,-1.145327091E-2,-4.973363876E-1,-4.535692334E-1
1.595188769E2,-1.156087756E0,-4.292583466E-1,-3.515318632E-1
1.596189412E2,4.582381248E-2,1.850233078E-1,1.030001640E0
1.597190019E2,-6.057739258E-3,6.554765701E-1,7.105488777E-1
1.598190696E2,1.716232300E-2,-6.536273956E-1,3.848123550E-1
1.599191369E2,3.304028511E-2,9.094333649E-1,-5.566310883E-1
1.600192063E2,-2.035934925E-1,-3.253707886E-1,-2.808631659E-1
1.601192733E2,-4.077790976E-1,-2.551803589E-1,-6.382370591E-1
1.602193448E2,1.117016077E-1,4.249582291E-1,8.867558241E-1
1.603194118E2,3.795179129E-1,-4.131183624E-1,1.360926986E0
1.604194793E2,-4.098844528E-2,-2.460098267E-2,5.682456493E-1
1.605195419E2,-4.507039785E-1,6.191120148E-1,5.500867367E-1
1.606196097E2,-1.074177384E0,1.108160019E-1,6.116964817E-1
1.607196751E2,-6.763174534E-1,-7.451496124E-1,3.520675898E-1
1.608197433E2,-4.936531186E-1,9.047679901E-1,-3.472529352E-1
1.609198097E2,-9.661109447E-1,-2.347087860E-2,3.151049018E-1
1.610198781E2,-3.692858219E-1,1.123523712E-1,1.024701118E0
1.611298839E2,1.433453560E-1,5.649280548E-1,-2.011975050E-1
1.612299510E2,-2.963232994E-2,2.175216675E-1,-2.416820526E-1
1.613300179E2,1.837868690E-1,-3.410453796E-1,-1.683861017E-1
1.614301521E2,3.283762932E-2,-3.407754898E-1,-6.884710193E-1
1.615302190E2,-7.102206945E-1,1.637992859E-1,-1.610381603E-1
1.616302908E2,6.152400970E-1,6.264495850E-1,2.389159203E-1
1.617303621E2,5.933670998E-1,-8.201189041E-1,6.640031338E-1
1.618304305E2,-3.002004623E-1,1.014185905E0,6.348599195E-1
1.619304931E2,-1.961050034E-1,-4.754066467E-2,9.509813786E-2
1.620305657E2,-1.175118923E0,7.898702621E-1,-7.503514290E-1
1.621306346E2,-6.681748033E-1,-5.695257187E-1,-8.378758430E-1
1.622307019E2,-5.234429836E-1,2.034864426E-1,-1.968245029E0
1.623307593E2,-7.033268809E-1,-2.032651901E-1,-4.124025106E-1
1.624308245E2,-1.248283386E-1,1.258850098E-1,2.090920210E-1
1.625308919E2,-5.010342598E-2,4.369888306E-1,4.914009571E-2
1.626309627E2,-1.442921162E-2,-3.189086914E-3,5.785739422E-2
1.627310271E2,1.356656551E-1,-2.105245590E-1,-3.986138701E-1
1.628310971E2,-5.831646919E-2,8.532810211E-1,-5.143242478E-1
1.629311605E2,5.845929384E-1,-1.156854630E-1,-8.740770817E-2
1.630312292E2,5.422593355E-1,-4.690198898E-1,3.394256830E-1
1.631312932E2,4.094995260E-1,7.858495712E-1,-8.548116684E-2
1.632313601E2,-2.892836332E-1,9.241104126E-3,8.088958263E-2
1.633314275E2,4.920682907E-1,-1.812829971E-1,3.773831129E-1
1.634314948E2,-3.748767972E-1,7.201852798E-1,-4.598811865E-1
1.635315622E2,-5.326467752E-1,-5.205078125E-1,4.710435867E-2
1.636316287E2,9.867894650E-2,-4.451398849E-1,-8.107006550E-1
1.637316940E2,8.591032028E-2,3.551025391E-1,-3.738360405E-1
1.638317659E2,-6.375696063E-1,-5.207548141E-1,7.559239864E-2
1.639318339E2,1.553252935E-1,5.935993195E-1,6.253457069E-1
1.640319103E2,2.329270840E-1,8.449382782E-1,2.403389215E-1
1.641320750E2,-2.929282188E-2,-6.227302551E-2,4.318096638E-1
1.642321419E2,-1.490163803E-2,-1.536736488E0,-5.608917475E-1
1.643322014E2,6.327009201E-1,1.145758629E0,-8.979210258E-1
1.644322692E2,-8.533895016E-1,-6.309213638E-1,-4.723435640E-1
1.645323363E2,5.567972660E-1,8.536844254E-1,2.453110218E-1
1.646324047E2,1.842818260E-1,9.791564941E-2,2.157598734E-1
1.647324636E2,6.041848660E-2,-1.251325607E-1,3.092011213E-1
1.648325304E2,-6.720476151E-1,1.596261978E0,-1.795197725E-1
1.649325965E2,-7.249748707E-1,-1.403443336E0,6.449414492E-1
1.650326658E2,-7.669083476E-1,1.028899193E0,-2.575623393E-1
1.651327335E2,-3.638216257E-1,-2.544689178E-2,-3.860349953E-1
1.652328005E2,-6.267725229E-1,4.047498703E-1,2.523425817E-1
1.653328684E2,-1.542997360E-2,1.650333405E-2,1.058932900E0
1.654329359E2,-3.176059723E-1,9.398660660E-1,-4.566460848E-1
1.655330070E2,-1.982998848E-1,-2.001752853E-1,-7.580449581E-1
1.656330737E2,1.200089455E-1,1.447821617E0,-3.190934658E-1
1.657331386E2,-8.330252171E-1,-1.070339203E0,-1.727670431E-1
1.658332017E2,2.533514500E-1,-3.680992126E-2,-2.066603899E-1
1.659332762E2,3.364869356E-1,3.974170685E-1,-4.302974939E-1
1.660333451E2,-8.634901047E-2,-9.866714478E-2,2.327506542E-1
1.661334123E2,2.234313488E-1,-3.515281677E-1,-1.666826010E-1
1.662334714E2,-9.641087055E-2,1.237575531E0,-3.124148846E-1
1.663335392E2,-1.855425239E-1,-2.986927032E-1,1.241874695E-2
1.664336073E2,-3.382270336E-1,1.666212082E-1,2.884079218E-1
1.665336772E2,-2.130982876E-1,-4.332084656E-1,-5.849722624E-1
1.666337433E2,-1.274084449E-1,-2.165288925E-1,2.243963480E-1
1.667338076E2,-8.102416992E-3,-1.499156952E-1,7.433660030E-1
1.668338732E2,3.172594309E-1,6.650562286E-1,-3.911167383E-1
1.669339408E2,1.750050783E-1,3.982505798E-1,1.695713997E-1
1.670340097E2,-4.797085524E-1,1.380100250E-1,-2.584487200E-1
1.671340756E2,5.370436907E-1,-6.884574890E-1,2.151161432E-1
1.672341463E2,-1.113971472E-1,2.686185837E-1,-8.081512451E-1
1.673342134E2,5.858075619E-2,-1.537094116E-1,-2.096576095E-1
1.674342809E2,6.366477013E-1,8.949470520E-2,4.497087002E-1
1.675343441E2,-3.596806526E-2,5.132637024E-1,5.482150316E-1
1.676344113E2,-1.994757652E-1,5.227375031E-2,4.028877020E-1
1.677344766E2,-1.914846897E-2,6.987571716E-2,-2.012956142E-2
1.678345490E2,-6.553968191E-1,-3.444185257E-1,1.678426266E-1
1.679346212E2,4.506075382E-1,4.460182190E-1,-9.089785218E-1
1.680346902E2,-1.177511215E-1,-7.501029968E-1,2.878254056E-1
1.681347523E2,-2.101339102E-1,6.984357834E-1,2.430894375E-1
1.682348147E2,1.424074173E-3,-6.913948059E-2,-1.408962011E-1
1.683348815E2,4.341884851E-1,4.974632263E-1,-8.988285065E-2
1.684349523E2,2.049567699E-1,-6.635103226E-1,-4.808380008E-1
1.685350206E2,5.626670122E-1,7.020254135E-1,-3.519082069E-1
1.686350873E2,9.406340122E-2,-2.757005692E-1,-3.233613968E-1
1.687351605E2,9.494328499E-2,-5.274400711E-1,-3.064308167E-1
1.688352258E2,5.881686211E-1,1.350851059E-1,4.209238291E-1
1.689352931E2,1.422778368E-1,1.083431244E-1,3.979101181E-1
1.690353562E2,7.450282574E-2,-6.296024323E-1,-7.178950310E-2
1.691354236E2,-5.405005217E-1,8.015508652E-1,4.289495945E-2
1.692354916E2,-5.785965919E-2,-6.690578461E-1,3.713198900E-1
1.693355533E2,-1.286864281E-1,5.025033951E-1,-3.764868379E-1
1.694356250E2,-2.344053984E-1,-2.432489395E-1,5.184646845E-1
1.695356910E2,-2.305952311E-1,-2.904701233E-2,1.074609637E0
1.696357574E2,2.030843496E-1,4.458827972E-1,1.195535183E0
1.697358179E2,2.746140957E-2,-1.478419304E0,-2.620124817E-2
1.698358860E2,8.207590580E-1,1.501362801E0,-9.016353488E-1
1.699359536E2,6.748298407E-1,-6.801099777E-1,5.946688652E-1
1.700360253E2,2.386820316E-2,1.536516190E0,3.333988190E0
1.701360926E2,1.963572502E-1,-1.470541954E0,1.456605673E0
1.702361599E2,1.453969002E0,4.345417023E-2,-7.161754370E-1
1.703362282E2,1.416822672E-1,3.470373154E-1,5.188196898E-1
1.704362947E2,9.323360920E-1,2.400461197E0,5.163047314E0
1.705363641E2,-6.947104335E-1,-3.685579777E0,5.876495838E-1
1.706364266E2,-2.068179369E0,-1.981344223E-1,-3.140754700E-1
1.707364984E2,-2.494172096E0,5.749225616E0,-1.015814877E1
1.708365662E2,2.164174557E0,-2.505553722E0,4.054260254E-2
1.709366343E2,-1.962777853E0,8.891401291E-1,1.590392828E0
1.710366974E2,8.743597269E-1,1.027510643E0,-5.311417580E-2
1.711367617E2,-3.341237307E-1,-9.172115326E-1,1.510786891E0
1.712368300E2,3.768491745E-1,9.508686066E-1,-7.543377876E-1
1.713368995E2,-3.689026833E-2,-1.524390221E0,-3.616976738E-1
1.714371047E2,1.391896486E0,3.310181618E0,-1.062252522E-1
1.715371773E2,-1.600026369E0,-2.764749050E0,2.650624514E-1
1.716372413E2,1.488262653E0,-1.163120270E-1,8.046250343E-1
1.717373046E2,8.545777798E-1,1.458328247E0,2.481335402E-1
1.718373678E2,-5.375385284E-2,-1.160400391E0,6.032794714E-1
1.719374353E2,-4.943206906E-1,7.562446594E-1,-4.700944424E-1
1.720375022E2,-6.528494358E-1,-5.940809250E-1,-1.143225431E-1
1.721375761E2,-2.615704536E-1,-1.868782043E-1,-8.061692715E-1
1.722376494E2,-3.468291759E-1,-9.125518799E-2,6.193687916E-1
1.723377167E2,-6.301236153E-1,2.584629059E-1,8.201268911E-1
1.724377794E2,-4.483650923E-1,2.127685547E-1,-3.065347672E-2
1.725378400E2,2.461767197E-1,4.549055099E-1,4.763766527E-1
1.726379063E2,-3.257231712E-1,1.322031021E-1,-1.584178209E-1
1.727379665E2,8.163785934E-2,-6.864204407E-1,-7.559728622E-2
1.728380337E2,3.886604309E-2,3.594932556E-1,-5.935906768E-1
1.729381069E2,4.011428356E-2,-4.285497665E-1,1.838455200E-1
1.730381758E2,3.585525751E-1,5.116615295E-1,-6.340622902E-2
1.731382428E2,1.737447977E-1,-2.817916870E-2,-3.651463985E-2
1.732383043E2,-2.411838770E-1,6.216621399E-2,2.101681232E-1
1.733383717E2,-1.703827381E-1,5.521173477E-1,-3.514584303E-1
1.734384393E2,-3.299747109E-1,-8.317070007E-1,-4.659109116E-1
1.735385067E2,-1.700399518E-1,4.261293411E-1,-4.102484584E-1
1.736385747E2,-3.054183125E-1,1.046428680E-1,2.987056971E-1
1.737386399E2,1.072214842E-1,4.427337646E-1,3.962755203E-3
1.738387133E2,6.134177446E-1,1.920289993E-1,6.545015574E-1
1.739387807E2,4.936469793E-1,-8.749961853E-3,-4.808886051E-1
1.740388494E2,5.445742607E-2,-5.878458023E-1,6.127281189E-1
1.741389103E2,2.369594574E-2,2.508935928E-1,-1.155035496E-1
1.742389763E2,7.241415977E-2,5.622577667E-2,1.085281372E-3
1.743390451E2,3.804620504E-1,-1.343803406E-1,9.265086651E-1
1.744391126E2,-8.679389954E-2,6.099281311E-1,-5.803954601E-2
1.745391796E2,-6.630634665E-1,1.565771103E-1,-3.241791725E-1
1.746392448E2,-6.414064169E-1,8.315086365E-3,-5.577575564E-1
1.747393113E2,-3.508814573E-1,1.233348846E-1,-1.217675209E-2
1.748393789E2,-4.617857933E-1,-8.726615906E-1,-2.553642988E-1
1.749394469E2,-3.274416924E-1,1.056927681E0,-1.035166979E-1
1.750395164E2,3.948526382E-1,-7.966995239E-3,2.459871769E-2
1.751395832E2,-1.124283075E-1,5.640802383E-1,-2.001253366E-1
1.752396546E2,6.751137972E-1,1.883497238E-1,-1.083431721E0
1.753397196E2,1.366722584E-2,-8.263416290E-1,-1.318964958E-1
1.754397864E2,9.580814838E-2,6.400527954E-1,-1.977422237E-1
1.755398499E2,3.320956230E-1,-3.244018555E-1,-5.839896202E-2
1.756399163E2,2.237949371E-1,-2.634925842E-1,7.099660635E-1
1.757399817E2,4.222265482E-1,7.478923798E-1,2.075428963E-1
1.758400474E2,-3.764373660E-1,2.968273163E-1,-3.913700581E-2
1.759401152E2,-7.485180497E-1,5.936241150E-2,2.741601467E-1
1.760401840E2,3.256919384E-1,-9.588336945E-2,-2.906525135E-2
1.761402516E2,-4.668450356E-1,-3.558740616E-1,4.856547117E-1
1.762403249E2,-2.595852613E-1,2.356681824E-1,-7.605195045E-3
1.763403935E2,1.362435818E-1,4.156732559E-1,1.954801083E-1
1.764404677E2,5.296876431E-1,2.481336594E-1,1.461458206E-1
1.765405283E2,4.244575500E-1,3.465366364E-1,-3.601425290E-1
1.766405944E2,1.319347620E-1,-9.473552704E-1,-5.212664604E-3
1.767406590E2,3.579567671E-1,5.394477844E-1,-8.122344017E-1
1.768407277E2,3.690377474E-1,2.921609879E-1,-2.747725248E-1
1.769407943E2,5.120456219E-1,-7.431554794E-1,3.883634806E-1
1.770408570E2,-5.944933295E-1,1.447299004E0,-3.621680737E-1
1.771409300E2,-2.457191348E-1,-5.112981796E-1,2.270748615E-1
1.772409973E2,-5.110039711E-1,9.100265503E-1,-7.204867601E-1
1.773410653E2,-1.935545802E-1,-8.229389191E-1,1.082219481E-1
1.774411271E2,-1.962711811E-1,4.402856827E-1,-4.438328743E-2
1.775411949E2,-3.159869909E-1,9.076023102E-2,2.453428507E-1
1.776412612E2,-2.179584503E-1,-4.838104248E-1,9.829043150E-1
1.777413271E2,1.694654226E-1,7.825136185E-1,8.094413280E-1
1.778413981E2,-4.826751947E-1,-5.847930908E-2,-2.341803312E-1
1.779414681E2,1.150486469E-1,-3.041887283E-1,1.041136980E-1
1.780415394E2,3.181245327E-1,1.065609932E0,-3.201824427E-1
1.781416020E2,-1.031467438E0,-9.889793396E-1,7.290763855E-1
1.782416661E2,9.848797321E-2,1.138422012E0,7.278439999E-1
1.783417358E2,-8.622252941E-2,-1.461512566E0,-1.752743363E0
1.784418029E2,-7.141947746E-1,-1.649955750E0,-6.795758009E-1
1.785418797E2,-3.930659294E-1,3.011820793E0,-1.337829232E0
1.786518033E2,-6.059904099E-1,3.934011459E-1,-8.365195394E-1
1.787518726E2,1.836118698E-1,-1.230244637E0,3.226753473E-1
1.788519299E2,-3.905363679E-1,1.155632973E0,-6.112658978E-2
1.789519981E2,7.291703224E-1,-4.078073502E-1,1.747313738E-1
1.790520640E2,1.116030216E-1,4.344043732E-1,3.761807680E-1
1.791521322E2,5.545442104E-1,1.649675369E-1,-1.222544432E0
1.792521993E2,1.872632504E-1,-8.643178940E-1,9.971916676E-2
1.793522721E2,-2.665584087E-1,8.562088013E-2,-3.904051185E-1
1.794523410E2,2.120723724E-1,8.529663086E-2,-4.668291211E-1
1.795524081E2,9.007620811E-2,-1.230964661E-1,4.544384480E-1
1.796524682E2,1.205612421E-1,4.855184555E-1,5.251744986E-1
1.797525315E2,-1.357302666E-1,6.735610962E-2,-3.864752650E-1
1.798525979E2,-1.386045694E0,3.197069168E-1,1.155207157E-1
1.799526657E2,-2.441664934E-1,4.195499420E-1,3.040075302E-1
1.800527335E2,2.630394697E-1,2.926082611E-1,2.156995535E-1
1.801528015E2,-6.803323030E-1,-4.251050949E-1,4.642057419E-1
1.802528750E2,2.222647667E-1,3.449687958E-1,6.572148800E-1
1.803529429E2,2.944155931E-1,4.990100861E-2,1.212427616E-1
1.804530100E2,1.919353008E-1,2.093696594E-2,-4.352945089E-1
1.805530707E2,4.933536053E-1,-5.688047409E-1,-3.835391998E-1
1.806531406E2,2.075330019E-1,2.440061569E-1,-5.112053156E-1
1.807532058E2,3.000988960E-1,7.608890533E-2,-5.489143133E-1
1.808532731E2,1.905800104E-1,-2.993993759E-1,1.203477383E-1
1.809533373E2,-2.522791624E-1,3.088512421E-1,1.973397732E-1
1.810534065E2,4.569244385E-2,4.737062454E-1,-2.751469612E-3
1.811534737E2,-5.872759223E-1,3.874702454E-1,-4.074848890E-1
1.812535421E2,2.147802114E-1,5.296001434E-1,5.054767132E-1
1.813536087E2,-1.116122007E-1,-4.200639725E-1,8.724105358E-2
1.814536760E2,-9.329470992E-1,-1.081123352E-1,2.481296062E-1
1.815537476E2,-3.634761572E-1,-1.066102982E-1,-2.667546272E-1
1.816538144E2,6.940044165E-1,1.520216942E0,-1.280384064E-1
1.817538800E2,-2.063083649E-2,-9.636192322E-1,-1.869965792E-1
1.818539412E2,3.545488119E-1,4.348850250E-2,-5.396395326E-1
1.819540096E2,-2.697207928E-1,2.837057114E-1,-2.861422300E-1
1.820540784E2,1.541514397E-1,2.077093124E-1,-9.115624428E-2
1.821541459E2,3.833953142E-1,-3.813066483E-1,5.119887590E-1
1.822542131E2,2.943092585E-1,6.311330795E-1,3.003208637E-1
1.823542801E2,-1.142080426E-1,-3.494958878E-1,-1.550414562E-1
1.824543483E2,-6.769008040E-1,5.583000183E-2,-3.722374439E-1
1.825544147E2,3.509082794E-1,5.167045593E-1,-1.416152239E0
1.826544809E2,-2.967024446E-1,7.745056152E-1,-1.226769805E0
1.827545486E2,-2.692747712E-1,-8.586406708E-1,9.922584295E-1
1.828546157E2,1.347631216E-1,1.831544876E0,3.087650537E-1
1.829645612E2,1.513910294E-1,-1.875164986E0,-1.442019701E0
1.830646267E2,2.195596695E-2,1.390791893E0,-2.959587574E-1
1.831648276E2,8.293082714E-1,-5.748147964E-1,-5.892804861E-1
1.832648907E2,-3.099912405E-1,3.915004730E-1,5.697011948E-4
1.833649582E2,1.790118217E-2,-6.286144257E-2,5.104502439E-1
1.834650304E2,6.303766966E-1,2.495841980E-1,2.133778334E-1
1.835650982E2,-5.083194971E-1,6.455707550E-2,6.819834709E-1
1.836651665E2,8.994340897E-2,3.144645691E-2,-1.194180250E-1
1.837652330E2,-9.504800439E-1,-2.547578812E-1,-6.394167542E-1
1.838653011E2,-4.241968393E-1,4.690551758E-1,-5.229246616E-1
1.839653660E2,7.214069366E-2,-2.675352097E-1,-2.746273875E-1
1.840654360E2,-6.457693577E-1,-4.042243958E-2,4.313718081E-1
1.841655063E2,-2.266204357E-1,-7.515335083E-2,9.287043810E-1
1.842655731E2,5.675680637E-1,1.001734734E0,2.666248083E-1
1.843656351E2,2.780264616E-1,-9.004650116E-1,-7.603348494E-1
1.844656973E2,-1.713199615E-1,6.066675186E-1,-4.478340745E-1
1.845657742E2,-1.203870773E-1,-6.871795654E-2,-5.303176045E-1
1.846658377E2,-1.564871073E-1,2.044363022E-1,3.388574123E-1
1.847659033E2,-2.268314362E-2,-3.033123016E-1,6.035306454E-1
1.848659685E2,2.305176258E-1,6.808519363E-1,1.109008789E-1
1.849660376E2,-5.907486081E-1,7.486734390E-1,3.051929474E-1
1.850661133E2,-5.157387257E-1,-8.375835419E-1,3.204743862E-1
1.851661729E2,-6.956538558E-1,6.225948334E-1,-1.939430237E-1
1.852662395E2,-6.662657261E-1,-2.983379364E-1,-2.533640862E-1
1.853663061E2,-5.322623253E-1,1.691532135E-1,4.414650202E-1
1.854663736E2,2.021983862E-1,-3.404712677E-2,1.322255015E0
1.855664406E2,1.081877947E-1,6.918430328E-2,4.162417650E-1
1.856665001E2,-4.246747494E-2,1.673240662E-1,6.893908978E-2
1.857665670E2,2.960277796E-1,-4.981842041E-1,-5.325657129E-1
1.858666414E2,-3.050947189E-2,4.188194275E-1,-5.661839247E-1
1.859766073E2,1.436525583E-1,-4.393091202E-1,-4.120998979E-1
1.860766744E2,3.245804310E-1,5.028877258E-1,2.450978756E-2
1.861767347E2,3.397667408E-2,1.168708801E-1,2.477505207E-1
1.862768019E2,5.685436726E-2,4.735755920E-1,-3.143819571E-1
1.863768688E2,-4.765747786E-1,-6.923370361E-1,-9.725832939E-2
1.864769357E2,1.445114613E-2,2.557106018E-1,-8.142881989E-1
1.865770029E2,-8.778637648E-2,-3.347492218E-2,-7.875225544E-1
1.866770689E2,-2.024066448E-1,-2.450904846E-1,2.371098995E-1
1.867771356E2,3.856241703E-1,9.402456284E-1,4.865920544E-2
1.868772028E2,2.867305279E-1,-1.956672668E-1,-1.076126099E-1
1.869772713E2,7.862687111E-3,-3.487243652E-1,5.267226696E-2
1.870773390E2,9.496607780E-1,-3.026103973E-1,-1.827235222E-1
1.871774098E2,-9.558892250E-2,1.767578125E-1,-5.571796894E-1
1.872774769E2,-1.849958897E-1,3.974800110E-1,-8.124589920E-2
1.873775442E2,2.455420494E-1,-3.768892288E-1,4.032707214E-1
1.874776074E2,-1.051477194E-1,2.779598236E-1,-4.105782509E-2
1.875776744E2,-3.569595814E-1,1.856603622E-1,5.696939230E-1
1.876777402E2,-6.554110646E-1,2.056932449E-1,1.116847992E-1
1.877778096E2,-8.245557547E-1,1.433105469E-1,-2.295422554E-2
1.878778781E2,5.117619038E-2,-4.635553360E-1,-1.019611359E-1
1.879779504E2,7.843029499E-2,4.159479141E-1,4.264460802E-1
1.880780159E2,-4.325333834E-1,-2.439689636E-1,8.638180494E-1
1.881780929E2,1.510834694E-1,2.201356888E-1,-2.632237673E-1
1.882781563E2,5.905600786E-1,2.722768784E-1,-1.013015628E0
1.883782237E2,6.106841564E-2,-9.241104126E-1,9.092688560E-3
1.884782798E2,5.407649279E-1,1.963176727E-1,-4.296237230E-1
1.885783466E2,6.158149242E-2,8.268547058E-2,5.906736851E-1
1.886784115E2,4.665398598E-1,1.828775406E-1,7.072926760E-1
1.887784805E2,1.965192556E-1,2.123346329E-1,1.332950592E-1
1.888785474E2,-4.734802842E-1,7.167558670E-1,1.282918453E-2
1.889786158E2,-6.440296173E-1,2.882299423E-1,-8.685338497E-1
1.890786809E2,3.315007687E-2,-7.854585648E-1,-7.551469207E-1
1.891787486E2,-3.571783304E-1,2.423000336E-1,-2.122890353E-1
1.892788161E2,-5.680683851E-1,-5.344791412E-1,-1.079233408E0
1.893788830E2,6.895722151E-1,8.646745682E-1,9.716640711E-1
1.894789499E2,1.914532185E-1,1.787377357E0,2.266566753E-1
1.895790168E2,-4.313111305E-1,-2.942806244E0,6.954033375E-1
1.896790827E2,1.680891275E0,1.816502571E0,-1.004083037E0
1.897791491E2,-9.870754480E-1,-8.819427490E-1,-9.699621797E-1
1.898792163E2,3.362480402E-1,2.236795425E-1,8.751194477E-1
1.899792843E2,6.762615442E-1,8.340835571E-3,-2.238574028E-1
1.900793522E2,-4.112005234E-3,-9.294767380E-1,5.107271671E-1
1.901794195E2,-5.835663080E-1,1.011647224E0,1.067383289E-1
1.902794964E2,-1.075299621E0,-2.416843414E0,-1.575498581E0
1.903795635E2,-9.490025043E-1,-3.109467983E0,-4.495173097E-1
1.904796302E2,-1.715087652E0,8.365256310E0,-5.816390514E0
1.905796882E2,1.115378261E0,-2.177259922E0,1.981708646E0
1.906797542E2,-1.020249009E0,-1.226091385E-1,1.460672736E0
1.907798274E2,1.010731816E0,1.545436859E0,-3.588284850E-1
1.908798952E2,-1.814754009E-1,-3.759574890E-2,3.277182579E-1
1.909799636E2,-8.162943125E-1,-1.120642662E0,2.852237225E-1
1.910800248E2,8.026462793E-1,4.934797287E-1,-9.982718825E-1
1.911800934E2,-4.268609285E-1,-2.388868809E0,-3.910958767E-2
1.912801614E2,3.358954191E-1,1.859257698E0,1.527886391E-1
1.913802281E2,4.938399792E-2,2.388267517E-1,-5.179636478E-1
1.914802926E2,-1.161859393E0,-5.621223450E-1,4.997731447E-1
1.915803585E2,-5.846980810E-1,1.225529671E0,4.624915123E-2
1.916804245E2,1.173101664E-1,-1.794524670E0,1.145013571E-1
1.917804908E2,-2.018608451E-1,2.937736511E-1,-1.209089756E-1
1.918805583E2,-1.477732658E-1,2.265030861E0,-2.134058237E0
1.919806336E2,-4.098204374E-1,-2.676099300E0,1.388508320E0
1.920807052E2,-3.079886436E-1,3.417914391E0,4.284781218E-1
1.921807722E2,-1.550239325E-1,-4.362077713E-1,-1.088678241E0
1.922808387E2,-5.907841921E-1,1.144341469E0,2.091311455E0
1.923809020E2,-4.792237282E-1,6.362943649E-1,2.857240677E0
1.924809688E2,6.180949211E-1,-2.740534306E0,-9.190006852E-1
1.925810300E2,-3.722971678E-1,2.078360558E0,-2.787216187E0
1.926810962E2,3.574392796E-1,2.794939995E0,1.017406464E0
1.927811645E2,-3.926767111E-1,-2.962125301E0,3.292344809E0
1.928812319E2,-7.364112139E-1,-3.040924072E0,9.867863655E-1
1.929813001E2,-1.568635583E0,-4.626647472E0,-4.471387386E0
1.930813665E2,2.535245419E0,9.893989563E-1,9.563239813E-1
1.931818327E2,7.952898741E-1,1.112108231E-1,2.558293343E0
1.932819006E2,3.261055946E-1,2.749453545E0,2.193345070E0
1.933819677E2,3.910212517E-1,-1.598940372E0,7.364714146E-2
1.934820351E2,3.266494274E-1,-1.144330025E0,-1.069158792E0
1.935821018E2,1.028880358E0,1.746345520E0,-8.469974995E-2
1.936821671E2,-8.686399460E-1,-1.242585182E0,3.331022263E-1
1.937822352E2,8.511066437E-2,3.927011490E-1,4.865660667E-1
1.938823072E2,-4.477429390E-1,-1.299114227E-1,-6.229300499E-1
1.939823764E2,-4.234759808E-1,1.259025574E0,1.082351685E0
1.940824427E2,-1.677738070E0,-4.196157455E-1,1.174093485E-1
1.941825093E2,-8.938939571E-1,3.590908051E-1,5.413249731E-1
1.942825767E2,1.924152374E-1,-8.093070984E-1,1.289758682E-1
1.943826443E2,-1.972762346E-1,1.053760529E0,3.196454048E-1
1.944827070E2,-5.200340152E-1,-1.328484535E0,5.342280865E-1
1.945827740E2,4.451632500E-1,9.250898361E-1,7.079855204E-1
1.946828386E2,3.960193396E-1,4.019165039E-2,-8.930799961E-1
1.947829047E2,1.735960245E-1,-2.099637985E-1,-4.790132046E-1
1.948829825E2,3.702104092E-1,6.514682770E-1,1.146928072E-1
1.949830515E2,-1.700769663E-1,-8.646144867E-1,4.605057240E-1
1.950831203E2,3.145143986E-1,5.583667755E-1,2.850359678E-1
1.951831803E2,-1.896439791E-1,4.772014618E-1,1.567244530E-3
1.952832480E2,-2.638722658E-1,-2.784681320E-1,3.521469831E-1
1.953833149E2,-8.607971668E-2,2.686481476E-1,1.542596817E-1
1.954833781E2,-2.884547114E-1,-5.313787460E-1,-1.775377989E-1
1.955834454E2,1.187469959E-1,-2.543144226E-1,-2.968991995E-1
1.956835138E2,-6.496005654E-1,8.444614410E-1,2.175410986E-1
1.957835800E2,3.800406456E-1,1.128501892E-1,6.569091082E-1
1.958836462E2,3.059806824E-1,-2.013902664E-1,-1.952490807E-1
1.959837177E2,4.789034128E-1,-1.872615814E-1,-7.948742509E-1
1.960837858E2,1.828112602E-1,1.918464661E0,-3.961389065E-1
1.961838588E2,-1.505335569E-1,-1.091595650E0,9.042501450E-3
1.962839202E2,-3.297480345E-1,-3.328169823E0,4.405019283E-1
1.963839877E2,1.529939294E0,4.983544350E0,-1.984785557E0
1.964840565E2,-1.229947329E0,-1.350687027E0,1.373090744E-1
1.965841276E2,3.179984093E-1,2.036762238E-2,1.077032804E0
1.966841926E2,-3.121296167E-1,8.656110764E-1,-7.805540562E-1
1.967842523E2,-1.340669990E0,-8.264818192E-1,7.445750237E-1
1.968843160E2,-2.207384109E-1,8.647575378E-1,-1.446845531E-1
1.969843846E2,-4.167106152E-1,-1.040058136E-1,-9.206148386E-1
1.970844605E2,-8.241275549E-1,-5.440015793E-1,-2.804945707E-1
1.971845273E2,4.236850739E-1,1.566801071E0,1.041967869E-1
1.972845948E2,1.840068102E-1,-2.971849442E-1,4.696574211E-1
1.973846533E2,1.161825657E-1,1.940542221E0,7.408797741E-2
1.974847204E2,-1.607996225E-1,-2.826123714E0,-2.859354019E-3
1.975847874E2,-7.526576519E-2,3.649063110E-1,9.735906124E-2
1.976848527E2,5.159639120E-1,2.493285179E0,-6.056392193E-1
1.977849189E2,-3.382287025E-1,-3.178919792E0,6.001533270E-1
1.978849875E2,7.973114252E-1,1.819322586E0,-4.503302574E-1
1.979850563E2,-2.487570047E-1,1.612091064E0,-5.423554182E-1
1.980851251E2,-3.296195269E-1,-1.416523933E0,1.062409401E0
1.981851963E2,-4.901352525E-1,1.268216133E0,-9.708225727E-1
1.982852635E2,-2.232239246E-1,-1.024645805E0,-8.497382402E-1
1.983853299E2,-3.556888700E-1,1.084918976E-1,5.354366302E-1
1.984853914E2,3.337501287E-1,1.585953712E0,1.569304466E-1
1.985854586E2,1.249155998E-1,-1.338606834E0,6.169297695E-1
1.986855242E2,-5.010348558E-1,1.900148392E-1,5.175123215E-1
1.987855969E2,3.849875927E-1,1.228006363E0,-1.626513004E-1
1.988856640E2,-3.680541515E-1,-3.254117966E-1,2.228372097E-1
1.989857357E2,-7.369287014E-1,-1.785697937E-1,6.395008564E-1
1.990858025E2,1.729319096E-1,4.394054413E-1,-1.198724508E-1
1.991858716E2,-4.246544838E-2,4.482145309E-1,9.000694752E-2
1.992859354E2,-9.529662132E-2,-2.559452057E-1,1.344739199E-1
1.993859981E2,-7.671378851E-1,4.023971558E-1,5.551012754E-1
