"Time (s)","Linear Acceleration x (m/s^2)","Linear Acceleration y (m/s^2)","Linear Acceleration z (m/s^2)"
2.331838200E-2,3.814511061E0,-8.877823830E0,-1.478627014E1
3.331838200E-2,2.789147139E0,-9.580615044E0,-1.530838013E1
4.331738200E-2,2.273087502E0,-1.007053089E1,-1.557699013E1
5.331638200E-2,1.854738474E0,-1.069164848E1,-1.548540878E1
6.331563200E-2,1.503381610E0,-1.140477276E1,-1.557807922E1
7.331463200E-2,1.357157230E0,-1.214352798E1,-1.556364727E1
8.331346500E-2,1.217265606E0,-1.258890724E1,-1.569461823E1
9.331246500E-2,1.327987671E0,-1.286818218E1,-1.581288624E1
1.033113400E-1,1.409951925E0,-1.287412834E1,-1.586935139E1
1.133101170E-1,1.629071593E0,-1.266877937E1,-1.579850864E1
1.233090170E-1,1.786353588E0,-1.228993607E1,-1.576928902E1
1.333078350E-1,2.013459921E0,-1.182900047E1,-1.557431316E1
1.433065850E-1,2.042355061E0,-1.135997105E1,-1.518737793E1
1.533054310E-1,2.094471216E0,-1.079546547E1,-1.485535812E1
1.633042160E-1,2.148454189E0,-1.050203800E1,-1.444952679E1
1.733030820E-1,2.159676790E0,-1.041319084E1,-1.425985909E1
1.833018940E-1,2.120304108E0,-1.050563240E1,-1.408753395E1
1.933006580E-1,1.947237015E0,-1.071930122E1,-1.392898750E1
2.032994910E-1,1.597934604E0,-1.104792786E1,-1.376932144E1
2.132982800E-1,9.597211480E-1,-1.147195435E1,-1.383937073E1
2.232970300E-1,3.947445154E-1,-1.200988865E1,-1.384776020E1
2.332958390E-1,-1.085937023E-1,-1.246257114E1,-1.391675377E1
2.432946110E-1,-5.316423178E-1,-1.294988251E1,-1.413214111E1
2.532933500E-1,-7.252740860E-1,-1.330394840E1,-1.446050072E1
2.632921410E-1,-8.535964489E-1,-1.355454445E1,-1.485931969E1
2.732909410E-1,-7.532904148E-1,-1.367540073E1,-1.526405716E1
2.832897480E-1,-5.382007360E-1,-1.352918530E1,-1.514602089E1
2.932885250E-1,-4.194552898E-1,-1.341365433E1,-1.497749519E1
3.032872750E-1,-6.864726543E-2,-1.320464325E1,-1.477991104E1
3.132860680E-1,1.526328325E-1,-1.314283085E1,-1.438062286E1
3.232848680E-1,2.582604885E-1,-1.309461403E1,-1.407796288E1
3.332837010E-1,2.853479385E-1,-1.318795204E1,-1.380245113E1
3.432826010E-1,1.877907515E-1,-1.321454620E1,-1.340205956E1
3.532815340E-1,9.000301361E-6,-1.325454140E1,-1.339776039E1
3.632804340E-1,-1.238663793E-1,-1.324420166E1,-1.349213982E1
3.732794000E-1,-3.118466139E-1,-1.333401299E1,-1.401570225E1
3.832784000E-1,-5.101421475E-1,-1.336187172E1,-1.403841591E1
3.932774000E-1,-7.079833150E-1,-1.328040981E1,-1.402373314E1
4.032764660E-1,-1.069395542E0,-1.347041416E1,-1.415366840E1
4.132755320E-1,-1.272032738E0,-1.353974915E1,-1.394080925E1
4.232745980E-1,-1.463072062E0,-1.366186905E1,-1.374596596E1
4.332736640E-1,-1.743312597E0,-1.387549114E1,-1.366686344E1
4.432727300E-1,-1.948350668E0,-1.406775951E1,-1.346543312E1
4.532717630E-1,-2.169914007E0,-1.414548492E1,-1.310346603E1
4.632707960E-1,-2.159436941E0,-1.395971680E1,-1.288878822E1
4.732697620E-1,-2.202460289E0,-1.369687271E1,-1.242899513E1
4.832687950E-1,-2.157810926E0,-1.332708359E1,-1.230838490E1
4.932678610E-1,-2.032094717E0,-1.291106319E1,-1.225326157E1
5.032668270E-1,-2.131359577E0,-1.266443634E1,-1.240128517E1
5.132658930E-1,-2.006445169E0,-1.250269127E1,-1.247408676E1
5.232649590E-1,-1.892390251E0,-1.243049049E1,-1.265137577E1
5.332640250E-1,-1.902650952E0,-1.251886177E1,-1.267001724E1
5.432630910E-1,-1.935932040E0,-1.275784016E1,-1.269536209E1
5.532621570E-1,-2.101297379E0,-1.304512119E1,-1.278930664E1
5.632611900E-1,-2.196027994E0,-1.314123440E1,-1.277718163E1
5.732602230E-1,-2.311917305E0,-1.322363663E1,-1.273794842E1
5.832592230E-1,-2.400806189E0,-1.327011871E1,-1.270080376E1
5.932582890E-1,-2.455848694E0,-1.329885292E1,-1.271433449E1
6.032573550E-1,-2.537333965E0,-1.333040428E1,-1.276482677E1
6.132563550E-1,-2.576818228E0,-1.344503498E1,-1.272255230E1
6.232553880E-1,-2.608049870E0,-1.346878910E1,-1.274631119E1
6.332543210E-1,-4.268435478E0,-1.331581497E1,-1.234515476E1
6.432531870E-1,-4.385116100E0,-1.338259792E1,-1.236719131E1
6.532520530E-1,-4.509659290E0,-1.341093254E1,-1.251741314E1
6.632508860E-1,-4.662865162E0,-1.363447571E1,-1.238925934E1
6.732497190E-1,-4.422332287E0,-1.374699783E1,-1.224006557E1
6.832485190E-1,-4.129929543E0,-1.371484756E1,-1.234058285E1
6.932472520E-1,-3.858427763E0,-1.362156105E1,-1.257350826E1
7.032459850E-1,-3.524294853E0,-1.372701263E1,-1.292260361E1
7.132447180E-1,-3.230742455E0,-1.381364632E1,-1.305835629E1
7.232433840E-1,-2.857145309E0,-1.394407749E1,-1.306679535E1
7.332421170E-1,-2.587414742E0,-1.409842682E1,-1.302754021E1
7.432408170E-1,-2.199223995E0,-1.413797760E1,-1.300918961E1
7.532395170E-1,-1.780195475E0,-1.450132179E1,-1.266445351E1
7.632382830E-1,-1.887286186E0,-1.466652489E1,-1.243023872E1
7.732370490E-1,-2.420021296E0,-1.458833408E1,-1.258639812E1
7.832358150E-1,-2.887775183E0,-1.457440567E1,-1.292118835E1
7.932345810E-1,-3.195935965E0,-1.465631390E1,-1.323199177E1
8.032333810E-1,-3.460819960E0,-1.476903152E1,-1.344131660E1
8.132321470E-1,-3.646716595E0,-1.461849594E1,-1.342562675E1
8.232309130E-1,-3.621385574E0,-1.427244186E1,-1.318094826E1
8.332296130E-1,-3.558737755E0,-1.387818146E1,-1.286812878E1
8.432283790E-1,-3.569010496E0,-1.340960693E1,-1.233470345E1
8.532271450E-1,-3.241386175E0,-1.296075821E1,-1.217024612E1
8.632258780E-1,-2.999052048E0,-1.262916946E1,-1.185896873E1
8.732246440E-1,-2.726128578E0,-1.236237335E1,-1.155883026E1
8.832234100E-1,-2.384745359E0,-1.222298622E1,-1.154267979E1
8.932221100E-1,-2.018730164E0,-1.220463467E1,-1.153966045E1
9.032208760E-1,-1.687172174E0,-1.230589199E1,-1.156151199E1
9.132196420E-1,-1.534136415E0,-1.249881840E1,-1.168208122E1
9.232184080E-1,-1.565166712E0,-1.270498848E1,-1.201355553E1
9.332171740E-1,-1.691061258E0,-1.281011009E1,-1.220598030E1
9.432159400E-1,-1.921009421E0,-1.289745331E1,-1.267127800E1
9.532147060E-1,-2.037204027E0,-1.290578175E1,-1.282118225E1
9.632134720E-1,-2.061312199E0,-1.281014252E1,-1.308215141E1
9.732121720E-1,-1.916489005E0,-1.276061249E1,-1.325825596E1
9.832109380E-1,-1.812233448E0,-1.259864140E1,-1.351496792E1
9.932097040E-1,-1.703566551E0,-1.239502430E1,-1.371866608E1
1.003208404E0,-1.582446575E0,-1.231083679E1,-1.376727867E1
1.013207170E0,-1.418869972E0,-1.230981159E1,-1.370628357E1
1.023205936E0,-1.137868524E0,-1.237796974E1,-1.379420376E1
1.033204702E0,-7.962725163E-1,-1.250232887E1,-1.383188438E1
1.043203502E0,-5.172446966E-1,-1.264955711E1,-1.386729431E1
1.053202268E0,-2.913104296E-1,-1.276509380E1,-1.378534985E1
1.063201034E0,-1.882845163E-1,-1.279320335E1,-1.385802650E1
1.073199800E0,-1.825960875E-1,-1.282668114E1,-1.399575615E1
1.083198500E0,-1.793670654E-1,-1.286549473E1,-1.408819008E1
1.093197233E0,-3.307796717E-1,-1.311376095E1,-1.407362938E1
1.103195966E0,-4.515935183E-1,-1.323118496E1,-1.429716873E1
1.113194632E0,-3.372449875E-1,-1.320600891E1,-1.461288071E1
1.123193365E0,-1.135249138E-1,-1.308011246E1,-1.478829956E1
1.133192098E0,3.498411179E-2,-1.292473125E1,-1.472657394E1
1.143190764E0,1.459183693E-1,-1.274774361E1,-1.467319870E1
1.153189497E0,2.963944674E-1,-1.250388718E1,-1.466808796E1
1.163188230E0,3.406566381E-1,-1.235253239E1,-1.445191956E1
1.173186963E0,5.758680105E-1,-1.233568382E1,-1.426155853E1
1.183185696E0,9.242135286E-1,-1.226412392E1,-1.397513390E1
1.193184462E0,1.173219323E0,-1.235352421E1,-1.410714149E1
1.203183228E0,1.281359553E0,-1.252627468E1,-1.428219509E1
1.213181994E0,1.444959402E0,-1.262773132E1,-1.469531441E1
1.223180694E0,1.526226878E0,-1.261397266E1,-1.511421967E1
1.233179460E0,1.592164278E0,-1.255089474E1,-1.541952229E1
1.243178226E0,1.419295907E0,-1.247376156E1,-1.552855587E1
1.253176926E0,1.196486592E0,-1.227640724E1,-1.538490105E1
1.263175726E0,1.157265544E0,-1.194564438E1,-1.549348354E1
1.273174492E0,9.632519484E-1,-1.159111214E1,-1.541084003E1
1.283173258E0,6.773445606E-1,-1.128821182E1,-1.508756065E1
1.293172024E0,7.825698853E-1,-1.072265816E1,-1.526334095E1
1.303170790E0,6.027531624E-1,-1.028603649E1,-1.495560360E1
1.313169556E0,6.690921783E-1,-9.927449226E0,-1.481245804E1
1.323168322E0,9.883580208E-1,-9.693201065E0,-1.485122585E1
1.333167022E0,1.335363269E0,-9.715542793E0,-1.470223427E1
1.343165788E0,1.855016232E0,-9.722440720E0,-1.465395164E1
1.353164588E0,2.321236134E0,-9.734188080E0,-1.484063339E1
1.363163288E0,2.727131128E0,-9.617423058E0,-1.506101322E1
1.373162054E0,2.792625427E0,-9.671958923E0,-1.516948318E1
1.383160820E0,2.900260448E0,-9.510422707E0,-1.529456329E1
1.393159520E0,2.873764038E0,-9.273825645E0,-1.538566589E1
1.403158286E0,3.053775072E0,-9.015562057E0,-1.546014404E1
1.413157086E0,2.973374367E0,-8.787981987E0,-1.552390862E1
1.423155886E0,3.030044556E0,-8.420687675E0,-1.562123299E1
1.433154719E0,3.159518242E0,-8.010778427E0,-1.552203178E1
1.443153619E0,3.204974174E0,-7.676643848E0,-1.545834732E1
1.453152485E0,3.442654610E0,-7.416065216E0,-1.535431767E1
1.463151351E0,3.519232988E0,-7.274480820E0,-1.507424545E1
1.473150151E0,3.770443678E0,-7.229990959E0,-1.498544312E1
1.483149017E0,3.882716179E0,-7.177988529E0,-1.486402702E1
1.493147850E0,4.041982651E0,-7.129552841E0,-1.472129250E1
1.503146650E0,4.076709270E0,-6.976121426E0,-1.458819962E1
1.513145516E0,4.063377857E0,-6.849962234E0,-1.450322723E1
1.523144382E0,4.061380863E0,-6.690741062E0,-1.426087189E1
1.533143248E0,3.987383366E0,-6.469208241E0,-1.435295486E1
1.543142314E0,4.045732975E0,-6.405097485E0,-1.454086113E1
1.553141180E0,4.160026073E0,-6.354482174E0,-1.497067261E1
1.563139980E0,4.404519081E0,-6.391709328E0,-1.528102779E1
1.573138846E0,4.576767921E0,-6.536069393E0,-1.562236977E1
1.583137646E0,4.616796017E0,-6.688105106E0,-1.574344063E1
1.593136512E0,4.428592205E0,-6.733633995E0,-1.558458805E1
1.603135378E0,4.424296856E0,-6.875096321E0,-1.567585468E1
1.613134178E0,4.402782917E0,-7.054994106E0,-1.581013107E1
1.623133044E0,4.346033096E0,-7.402256489E0,-1.606704712E1
1.633131910E0,4.283404350E0,-7.733264446E0,-1.652524948E1
1.643130710E0,4.045366287E0,-8.048715591E0,-1.671527481E1
1.653129543E0,3.934243202E0,-8.278178215E0,-1.703202057E1
1.663128409E0,3.703729153E0,-8.303030968E0,-1.688888931E1
1.673127275E0,3.759039879E0,-8.275142670E0,-1.702066422E1
1.683126108E0,3.872207165E0,-8.212835312E0,-1.703980637E1
1.693124974E0,3.951007605E0,-8.133792877E0,-1.695416451E1
1.703123840E0,4.108528614E0,-8.063218117E0,-1.677683640E1
1.713122673E0,4.382483006E0,-7.821635246E0,-1.646708298E1
1.723121439E0,4.410949230E0,-7.659545898E0,-1.620609474E1
1.733120239E0,4.528926849E0,-7.261320591E0,-1.593736839E1
1.743118972E0,4.827280045E0,-6.877140522E0,-1.565609741E1
1.753117672E0,5.114770412E0,-6.652696133E0,-1.540277863E1
1.763116438E0,5.379438400E0,-6.405592918E0,-1.515096283E1
1.773115204E0,5.641945362E0,-6.365015507E0,-1.498971367E1
1.783113970E0,5.789550781E0,-6.443485737E0,-1.473956299E1
1.793112736E0,5.836505890E0,-6.692368507E0,-1.503981590E1
1.803111469E0,5.503583908E0,-7.089527130E0,-1.542449856E1
1.813110202E0,5.348975658E0,-7.485443592E0,-1.589109612E1
1.823108968E0,5.046081543E0,-7.734310150E0,-1.618171692E1
1.833107668E0,4.717883587E0,-7.902138710E0,-1.651379585E1
1.843106234E0,4.448945522E0,-7.847107410E0,-1.641765404E1
1.853105000E0,4.367851734E0,-7.685965538E0,-1.598322868E1
1.863103733E0,4.608214855E0,-7.521721363E0,-1.561384392E1
1.873102499E0,4.995718956E0,-7.435558319E0,-1.556921387E1
1.883101265E0,5.163090229E0,-7.409296036E0,-1.564159966E1
1.893099965E0,5.409883976E0,-7.228440762E0,-1.576856613E1
1.903098731E0,5.499466896E0,-6.907228470E0,-1.565056419E1
1.913097497E0,5.674021721E0,-6.565866470E0,-1.545808601E1
1.923096263E0,5.854339123E0,-6.337556362E0,-1.525030422E1
1.933095029E0,6.124258041E0,-6.329499722E0,-1.494099998E1
1.943093795E0,6.403413296E0,-6.444806099E0,-1.495491791E1
1.953092561E0,6.472284794E0,-6.631021023E0,-1.487903118E1
1.963091327E0,6.267068386E0,-6.946578503E0,-1.508153629E1
1.973090027E0,6.126745224E0,-7.321189880E0,-1.532138824E1
1.983088827E0,5.928891659E0,-7.712723255E0,-1.570422459E1
1.993087593E0,5.748535633E0,-8.079617500E0,-1.597089958E1
2.003086293E0,5.640944958E0,-8.355838776E0,-1.616191292E1
2.013085059E0,5.523843288E0,-8.520507812E0,-1.634493446E1
2.023083825E0,5.538398266E0,-8.562819481E0,-1.642666435E1
2.033082591E0,5.483021259E0,-8.552257538E0,-1.644098091E1
2.043081357E0,5.670894146E0,-8.299774170E0,-1.631466484E1
2.053080123E0,5.569918633E0,-7.979469299E0,-1.608644295E1
2.063078889E0,5.486471653E0,-7.567078590E0,-1.559419823E1
2.073077655E0,5.471043587E0,-7.138277531E0,-1.540758514E1
2.083076355E0,5.609245777E0,-6.622455597E0,-1.492845154E1
2.093075121E0,5.805745125E0,-6.249760628E0,-1.479094315E1
2.103073887E0,6.085291386E0,-5.988317013E0,-1.451320076E1
2.113072587E0,6.318326473E0,-5.799876213E0,-1.434444237E1
2.123071320E0,6.207639217E0,-5.718789101E0,-1.396649170E1
2.133070053E0,6.098689079E0,-5.855150700E0,-1.393487358E1
2.143068719E0,6.006682396E0,-6.107007027E0,-1.435566139E1
2.153067452E0,6.012744427E0,-6.349337101E0,-1.505667782E1
2.163066185E0,5.838783741E0,-6.610617638E0,-1.531936455E1
2.173064918E0,5.555943012E0,-6.852631569E0,-1.566184330E1
2.183063651E0,5.359091759E0,-7.307262421E0,-1.570983887E1
2.193062384E0,5.479575634E0,-7.716884613E0,-1.560093975E1
2.203061117E0,5.097683907E0,-7.950040817E0,-1.563312817E1
2.213059883E0,5.004990578E0,-7.986568451E0,-1.546472263E1
2.223058583E0,4.970414162E0,-7.910452366E0,-1.546071053E1
2.233057349E0,5.084743977E0,-7.763010979E0,-1.549878502E1
2.243056115E0,5.299857140E0,-7.244081020E0,-1.568737411E1
2.253054815E0,5.459168434E0,-6.803888321E0,-1.552919388E1
2.263053581E0,5.584780216E0,-6.390747070E0,-1.524400902E1
2.273052347E0,5.880753040E0,-5.964740276E0,-1.480494308E1
2.283051113E0,6.119634151E0,-5.768695354E0,-1.442029476E1
2.293049879E0,6.590492725E0,-5.672923565E0,-1.403082466E1
2.303048645E0,7.050200462E0,-5.599432468E0,-1.387549973E1
2.313047411E0,7.343787670E0,-5.686137676E0,-1.410702419E1
2.323046177E0,7.584610462E0,-5.734501839E0,-1.421674728E1
2.333044877E0,7.714181900E0,-5.949153423E0,-1.468914032E1
2.343043643E0,7.465140343E0,-6.094725609E0,-1.486220455E1
2.353042409E0,7.377115250E0,-6.180663586E0,-1.501024532E1
2.363041142E0,6.809273243E0,-6.333433628E0,-1.539591217E1
2.373039908E0,6.659859657E0,-6.234469414E0,-1.581048393E1
2.383038674E0,6.426832199E0,-6.137555599E0,-1.590823460E1
2.393037374E0,6.234009743E0,-6.114035606E0,-1.606549072E1
2.403036140E0,6.208072186E0,-6.095527649E0,-1.612205315E1
2.413034906E0,6.131260395E0,-5.951868057E0,-1.587891006E1
2.423033672E0,6.059581280E0,-5.770539284E0,-1.565107346E1
2.433032438E0,6.263261318E0,-5.618806362E0,-1.531932926E1
2.443031204E0,6.454460621E0,-5.218374252E0,-1.479337692E1
2.453029937E0,6.546861649E0,-4.759668827E0,-1.442790031E1
2.463028737E0,6.545122623E0,-4.350597858E0,-1.395732498E1
2.473027537E0,6.582447052E0,-3.907312393E0,-1.359328461E1
2.483026437E0,6.517111301E0,-3.653629780E0,-1.332921028E1
2.493025370E0,6.789619446E0,-3.368948221E0,-1.302891541E1
2.503024270E0,7.114029408E0,-3.296184063E0,-1.311297607E1
2.513023236E0,7.129596710E0,-3.308049440E0,-1.285787010E1
2.523022236E0,7.978263855E0,-3.221014738E0,-1.359398270E1
2.533021236E0,8.047954559E0,-3.179005861E0,-1.383910561E1
2.543020269E0,7.839859009E0,-3.325524330E0,-1.401322460E1
2.553019335E0,7.349987984E0,-3.448071003E0,-1.429494190E1
2.563018401E0,6.889842510E0,-3.614887953E0,-1.433167934E1
2.573017467E0,6.662777901E0,-3.705432653E0,-1.448268127E1
2.583016467E0,6.688087463E0,-3.795021296E0,-1.460196686E1
2.593015533E0,6.731987953E0,-3.889302254E0,-1.461422729E1
2.603014599E0,6.784343719E0,-3.989922047E0,-1.441462135E1
2.613013599E0,6.703448772E0,-4.242804527E0,-1.447545815E1
2.623012665E0,7.116390705E0,-4.216615677E0,-1.464653873E1
2.633011731E0,7.255836487E0,-4.326006889E0,-1.487841034E1
2.643010731E0,7.266130924E0,-4.254096508E0,-1.464095688E1
2.653009797E0,7.218239307E0,-4.211593151E0,-1.438264084E1
2.663008830E0,7.230215549E0,-4.135389805E0,-1.413878918E1
2.673007896E0,7.155384064E0,-4.037845135E0,-1.387898254E1
2.683006962E0,7.040612221E0,-3.994007111E0,-1.359221363E1
2.693006028E0,6.945662975E0,-3.951284885E0,-1.328576469E1
2.703005094E0,6.843449116E0,-3.993034840E0,-1.328370285E1
2.713004160E0,6.597466469E0,-4.084716797E0,-1.327970695E1
2.723003160E0,6.404174805E0,-4.183923721E0,-1.342928696E1
2.733002226E0,6.233152866E0,-4.297131538E0,-1.345152664E1
2.743001292E0,6.087160587E0,-4.447365284E0,-1.345862293E1
2.753000325E0,5.983967781E0,-4.524599075E0,-1.353800201E1
2.762999358E0,5.930908203E0,-4.586702347E0,-1.371333027E1
2.772998324E0,5.915313721E0,-4.635914803E0,-1.386784744E1
2.782997257E0,5.828385353E0,-4.704640388E0,-1.382759571E1
2.792996157E0,5.730033875E0,-4.829273701E0,-1.374079800E1
2.802995023E0,5.697005749E0,-4.951398849E0,-1.376759148E1
2.812993856E0,5.674393654E0,-5.053803444E0,-1.378063774E1
2.822992656E0,5.635556221E0,-5.164734364E0,-1.379912567E1
2.832991389E0,5.676453114E0,-5.632131100E0,-1.368850899E1
2.842990155E0,5.610410690E0,-6.017564774E0,-1.377403069E1
2.852988888E0,5.511232853E0,-6.337455750E0,-1.384508896E1
2.862987554E0,5.297685623E0,-6.646173000E0,-1.365211010E1
2.872986287E0,5.019237995E0,-6.940110207E0,-1.366740799E1
2.882985020E0,4.788502216E0,-7.303240776E0,-1.374695015E1
2.892983686E0,4.730971336E0,-7.750519753E0,-1.374803925E1
2.902982419E0,4.683335304E0,-8.149621964E0,-1.376423645E1
2.912981152E0,4.523712158E0,-8.606400490E0,-1.378292847E1
2.922979885E0,4.271221638E0,-9.115917206E0,-1.377505398E1
2.932978618E0,4.037571907E0,-9.385732651E0,-1.387777519E1
2.942977384E0,3.680700779E0,-9.742313385E0,-1.372544765E1
2.952976150E0,3.417401075E0,-1.002335167E1,-1.385582733E1
2.962974916E0,3.308784246E0,-1.041908360E1,-1.394445419E1
2.972973616E0,3.349628925E0,-1.108627033E1,-1.421742535E1
2.982972382E0,3.183313847E0,-1.178246784E1,-1.433600235E1
2.992971148E0,2.962381601E0,-1.227504539E1,-1.429014015E1
3.002969848E0,2.435432196E0,-1.274955750E1,-1.416523743E1
3.012968614E0,2.107060194E0,-1.292212105E1,-1.384629059E1
3.022967380E0,2.055706739E0,-1.286109543E1,-1.368096161E1
3.032966146E0,2.208937645E0,-1.271677876E1,-1.345244026E1
3.042964912E0,2.346575737E0,-1.233150101E1,-1.298954964E1
3.052963678E0,2.614243031E0,-1.182964897E1,-1.269150925E1
3.062962478E0,2.863473177E0,-1.134632301E1,-1.276126099E1
3.072961244E0,3.138841867E0,-1.138006020E1,-1.257982635E1
3.082959944E0,3.280679226E0,-1.161642647E1,-1.285157967E1
3.092958710E0,3.300146580E0,-1.193272018E1,-1.303699493E1
3.102957476E0,3.272573948E0,-1.227499008E1,-1.318255234E1
3.112956176E0,3.288899899E0,-1.245503521E1,-1.308491039E1
3.122954942E0,3.113743067E0,-1.308556652E1,-1.225949669E1
3.132953708E0,3.027042389E0,-1.319616508E1,-1.238783455E1
3.142952408E0,2.824073076E0,-1.321263027E1,-1.194024849E1
3.152951174E0,2.485752344E0,-1.328825569E1,-1.170446014E1
3.162949940E0,2.127683401E0,-1.334739590E1,-1.164783382E1
3.172948706E0,1.835983038E0,-1.330039692E1,-1.163214016E1
3.182947472E0,1.600822210E0,-1.321197891E1,-1.159654617E1
3.192946238E0,1.551724911E0,-1.320534134E1,-1.166674614E1
3.202945004E0,1.464491367E0,-1.318360043E1,-1.166318893E1
3.212943770E0,1.532702446E0,-1.315750313E1,-1.156460476E1
3.222942470E0,1.654598475E0,-1.305257797E1,-1.165998268E1
3.232941236E0,1.903695822E0,-1.307443428E1,-1.180213356E1
3.242939969E0,2.077816963E0,-1.306184196E1,-1.176434898E1
3.252938635E0,2.449361801E0,-1.292195702E1,-1.153183460E1
3.262937368E0,2.580287933E0,-1.280225945E1,-1.100786400E1
3.272936101E0,2.626219511E0,-1.278503513E1,-1.049390030E1
3.282934834E0,2.486244917E0,-1.285974216E1,-1.015193748E1
3.292933567E0,2.280798674E0,-1.319242668E1,-1.020764351E1
3.302932300E0,2.117898703E0,-1.389542580E1,-1.042747307E1
3.312931033E0,2.265275240E0,-1.450395489E1,-1.076456833E1
3.322929766E0,2.283718109E0,-1.490119171E1,-1.120832062E1
3.332928466E0,2.133340836E0,-1.522338486E1,-1.169869518E1
3.342927232E0,2.094722748E0,-1.527378464E1,-1.196254539E1
3.352925998E0,2.209820747E0,-1.496284389E1,-1.189345264E1
3.362924664E0,2.496424675E0,-1.427026558E1,-1.136143398E1
3.372923430E0,2.833553314E0,-1.364621735E1,-1.106042671E1
3.382922196E0,3.182887077E0,-1.328266144E1,-1.071460533E1
3.392920896E0,3.413345337E0,-1.295881462E1,-1.032595634E1
3.402919662E0,3.661156654E0,-1.265735054E1,-1.003624249E1
3.412918428E0,3.847637177E0,-1.242326641E1,-9.716064453E0
3.422917228E0,4.052235603E0,-1.222427082E1,-9.414575577E0
3.432916028E0,4.096849442E0,-1.207562447E1,-9.050874710E0
3.442914828E0,4.344047546E0,-1.194590855E1,-8.910144806E0
3.452913561E0,4.459525108E0,-1.181711197E1,-8.849401474E0
3.462912294E0,4.592211723E0,-1.170596790E1,-8.894443512E0
3.472910960E0,4.562734127E0,-1.166916561E1,-8.954572678E0
3.482909693E0,4.642261028E0,-1.164169693E1,-8.931068420E0
3.492908426E0,4.681348324E0,-1.166010857E1,-8.785854340E0
3.502907092E0,4.785239220E0,-1.189311504E1,-8.476985931E0
3.512905858E0,4.938525677E0,-1.207924652E1,-8.312962532E0
3.522904691E0,5.025526524E0,-1.226336288E1,-8.053827286E0
3.532903457E0,5.354500771E0,-1.242371273E1,-8.144477844E0
3.542902190E0,5.585480690E0,-1.273318100E1,-8.295150757E0
3.552900990E0,5.722536087E0,-1.321170807E1,-8.517319679E0
3.562899790E0,5.873130798E0,-1.360269070E1,-8.939875603E0
3.572898623E0,6.108080387E0,-1.378558731E1,-9.220254898E0
3.582897456E0,6.309341908E0,-1.393733501E1,-9.456039429E0
3.592896356E0,6.302395821E0,-1.394922638E1,-9.531921387E0
3.602895256E0,6.308202267E0,-1.383991623E1,-9.412073135E0
3.612894089E0,6.332942963E0,-1.359643364E1,-9.287372589E0
3.622892989E0,6.392806053E0,-1.348873901E1,-9.034207344E0
3.632891855E0,6.492917538E0,-1.337621880E1,-8.823539734E0
3.642890655E0,6.704892159E0,-1.316393852E1,-8.691581726E0
3.652889488E0,6.945793152E0,-1.307643890E1,-8.649731636E0
3.663367454E0,7.187500477E0,-1.303275204E1,-8.510089874E0
3.673366320E0,7.370277405E0,-1.309278584E1,-8.471721649E0
3.683365186E0,7.426398754E0,-1.322828865E1,-8.342082977E0
3.693364052E0,7.437619209E0,-1.321033955E1,-8.476190567E0
3.703362918E0,7.578406811E0,-1.313554573E1,-8.416599274E0
3.713361784E0,7.717046738E0,-1.306194401E1,-8.108274460E0
3.723360550E0,7.857134819E0,-1.297827911E1,-7.823219299E0
3.733359383E0,7.912503242E0,-1.295997429E1,-7.591351509E0
3.743358216E0,7.860986710E0,-1.306788826E1,-7.587062836E0
3.753357049E0,7.800126076E0,-1.312130451E1,-7.852774620E0
3.763355949E0,7.692256927E0,-1.315185165E1,-8.484372139E0
3.773354849E0,7.526490211E0,-1.287083626E1,-8.983551979E0
3.783353749E0,7.386866570E0,-1.271158981E1,-9.015792847E0
3.793352649E0,7.202168465E0,-1.258817196E1,-8.760065079E0
3.803351549E0,6.837024689E0,-1.269824123E1,-8.489835739E0
3.813350415E0,6.585286140E0,-1.284113598E1,-8.391325951E0
3.823349215E0,6.476321697E0,-1.306020069E1,-8.146207809E0
3.833348015E0,6.494414806E0,-1.319464111E1,-7.863835335E0
3.843346915E0,6.652003765E0,-1.311083698E1,-7.520567417E0
3.853345748E0,7.029485226E0,-1.291640854E1,-7.255740166E0
3.863344514E0,7.244546890E0,-1.256839371E1,-6.973820686E0
3.873343314E0,7.350043297E0,-1.236886406E1,-7.045365334E0
3.883342047E0,7.479744911E0,-1.223428440E1,-7.461246490E0
3.893340713E0,7.714662075E0,-1.203028679E1,-7.509768486E0
3.903339446E0,7.987686634E0,-1.172822380E1,-7.382177353E0
3.913338179E0,8.298512459E0,-1.129435730E1,-6.795022011E0
3.923336912E0,8.631851196E0,-1.108057690E1,-6.432579041E0
3.933335645E0,8.748142242E0,-1.110611820E1,-6.090349197E0
3.943334378E0,8.577855110E0,-1.131872177E1,-6.098371029E0
3.953333144E0,8.451519966E0,-1.128680992E1,-6.871019363E0
3.963331877E0,8.256439209E0,-1.142717361E1,-8.110340118E0
3.973330577E0,7.995558262E0,-1.151312065E1,-9.249406815E0
3.983329377E0,7.484648705E0,-1.161925316E1,-8.401910782E0
3.993328143E0,7.200283051E0,-1.145944786E1,-7.710940361E0
4.003326843E0,6.965051651E0,-1.122132492E1,-7.037321091E0
4.013325609E0,6.752934456E0,-1.123044109E1,-6.666857243E0
4.023324375E0,6.541805744E0,-1.121485806E1,-8.001870155E0
4.033323141E0,6.817481518E0,-1.139359283E1,-8.093419075E0
4.043321907E0,7.267611027E0,-1.171043396E1,-8.309227943E0
4.053320673E0,8.082004547E0,-1.171260643E1,-7.883589268E0
4.063319439E0,7.849823952E0,-1.139494801E1,-8.434979439E0
4.073318205E0,7.479232311E0,-1.110934258E1,-7.805255413E0
4.083316905E0,7.174574852E0,-1.135647202E1,-7.488974571E0
4.093315671E0,7.324791908E0,-1.154574776E1,-7.707835197E0
4.103314437E0,8.077438354E0,-1.202167511E1,-8.797478676E0
4.113313137E0,8.674180031E0,-1.274137402E1,-8.861704826E0
4.123311903E0,9.364832878E0,-1.257116699E1,-8.432144165E0
4.133310669E0,9.241337776E0,-1.199485779E1,-8.157787323E0
4.143309369E0,8.938935280E0,-1.111237240E1,-6.537378788E0
4.153308135E0,9.145701408E0,-1.023194599E1,-6.145712852E0
4.163306901E0,9.437273026E0,-9.630713463E0,-6.613731384E0
4.173305667E0,9.393251419E0,-8.952647209E0,-6.741268635E0
4.183304433E0,9.101642609E0,-8.282424927E0,-5.971286297E0
4.193303199E0,8.819827080E0,-7.581223011E0,-5.010012627E0
4.203301965E0,8.484807968E0,-6.921829224E0,-4.314620972E0
4.213300731E0,8.408383369E0,-6.576596260E0,-3.563428164E0
4.223299431E0,8.704395294E0,-6.551681995E0,-3.720609665E0
4.233298197E0,9.343362808E0,-6.712034225E0,-4.524918556E0
4.243296963E0,9.659577370E0,-6.833073139E0,-5.456499577E0
4.253295663E0,9.784682274E0,-7.108651161E0,-6.305770397E0
4.263294429E0,9.757643700E0,-7.516515732E0,-6.569215775E0
4.273293162E0,9.655065536E0,-7.888409615E0,-6.277623177E0
4.283291862E0,9.407404900E0,-8.322224617E0,-6.200150490E0
4.293290595E0,9.138821602E0,-8.687406540E0,-6.203058243E0
4.303289328E0,8.812813759E0,-8.995737076E0,-6.123157024E0
4.313288061E0,8.666555405E0,-9.293803215E0,-6.260134697E0
4.323286794E0,8.627178192E0,-9.771965981E0,-6.508454323E0
4.333285460E0,8.600792885E0,-1.048894215E1,-7.064551353E0
4.343284193E0,8.733044624E0,-1.099070358E1,-7.549380302E0
4.353282926E0,8.760470390E0,-1.151621628E1,-7.863867760E0
4.363281592E0,8.829476357E0,-1.192938900E1,-8.009566307E0
4.373280325E0,8.799290657E0,-1.200117493E1,-7.697895527E0
4.383279091E0,8.650958061E0,-1.204266834E1,-7.140600204E0
4.393277791E0,8.564048767E0,-1.202318478E1,-6.714527607E0
4.403276557E0,8.349210739E0,-1.213521004E1,-6.494849682E0
4.413275323E0,8.166376114E0,-1.226543236E1,-6.245483875E0
4.423274089E0,8.002723694E0,-1.243565178E1,-6.219038486E0
4.433272889E0,7.805687904E0,-1.251391602E1,-6.167696476E0
4.443271689E0,7.587071419E0,-1.260591412E1,-6.156873226E0
4.453270455E0,7.601713181E0,-1.253572083E1,-5.869903088E0
4.463269188E0,7.574776173E0,-1.229180908E1,-5.752919197E0
4.473267854E0,7.500097752E0,-1.209098530E1,-5.696354866E0
4.483266587E0,7.315425873E0,-1.198337936E1,-5.519983292E0
4.493265320E0,7.133719444E0,-1.194597530E1,-5.483222961E0
4.503263986E0,7.038579464E0,-1.193823147E1,-5.403614521E0
4.513262752E0,7.111405373E0,-1.194316769E1,-5.395433903E0
4.523261518E0,7.251888752E0,-1.198864460E1,-5.519610882E0
4.533260418E0,7.429279327E0,-1.205674076E1,-5.606171131E0
4.543259151E0,7.641948700E0,-1.230373287E1,-5.793551445E0
4.553257917E0,7.765361786E0,-1.254054928E1,-5.874583721E0
4.563256683E0,7.886693001E0,-1.283697891E1,-5.786273003E0
4.573255449E0,8.008419037E0,-1.314946175E1,-5.489274979E0
4.583254149E0,7.877410412E0,-1.342698479E1,-5.341874123E0
4.593252949E0,7.840548515E0,-1.344297791E1,-5.091892719E0
4.603251749E0,7.892603397E0,-1.334713173E1,-4.671286583E0
4.613250582E0,7.973965168E0,-1.325650215E1,-4.473399162E0
4.623249482E0,8.089353561E0,-1.325290108E1,-4.344643593E0
4.633248448E0,8.102216721E0,-1.330088043E1,-4.296672821E0
4.643247381E0,8.122968674E0,-1.322282505E1,-4.232737064E0
4.653246381E0,8.026033401E0,-1.321728230E1,-4.172618866E0
4.663245414E0,7.921975136E0,-1.313983536E1,-3.883644819E0
4.673244447E0,7.743451595E0,-1.311796284E1,-3.704508781E0
4.683243480E0,7.618642330E0,-1.308678627E1,-3.843121290E0
4.693242580E0,7.504385948E0,-1.303933334E1,-4.003242493E0
4.703241680E0,7.220005512E0,-1.303774261E1,-4.321928978E0
4.713240780E0,6.591451645E0,-1.338233757E1,-4.683064938E0
4.723239813E0,6.139187336E0,-1.362134647E1,-5.166681290E0
4.733238879E0,5.270531178E0,-1.420495129E1,-5.524112701E0
4.743237945E0,4.603116512E0,-1.466847801E1,-5.421779633E0
4.753236978E0,3.923637867E0,-1.524690914E1,-5.132880688E0
4.763236111E0,3.549062252E0,-1.551941681E1,-4.893666267E0
4.773235244E0,3.469731808E0,-1.551264954E1,-4.533613682E0
4.783234377E0,3.522664070E0,-1.511936474E1,-4.385881424E0
4.793233510E0,3.676499844E0,-1.440676117E1,-3.953737736E0
4.803232643E0,3.993732929E0,-1.403090191E1,-3.993870974E0
4.813231743E0,4.264278412E0,-1.367188454E1,-4.223057747E0
4.823230843E0,4.708189487E0,-1.356678009E1,-3.362155437E0
4.833229743E0,5.164570332E0,-1.345581532E1,-3.106009722E0
4.843228876E0,5.454440594E0,-1.329989052E1,-3.112940073E0
4.853227976E0,5.866158485E0,-1.310863304E1,-3.141633987E0
4.863227009E0,5.857351303E0,-1.294934082E1,-3.187179804E0
4.873226109E0,5.732743263E0,-1.297389603E1,-3.376299143E0
4.883225209E0,5.496927261E0,-1.309663963E1,-3.722401619E0
4.893224275E0,5.247528076E0,-1.328971672E1,-4.068367004E0
4.903223341E0,5.103719711E0,-1.347255135E1,-4.256977081E0
4.913222307E0,5.038604736E0,-1.342360306E1,-4.294122219E0
4.923221273E0,5.247261047E0,-1.366002750E1,-4.153818130E0
4.933220173E0,5.651770592E0,-1.349269485E1,-4.387568951E0
4.943219039E0,5.869807720E0,-1.316167545E1,-4.307428837E0
4.953217905E0,6.166881561E0,-1.302178574E1,-4.019252777E0
4.963216738E0,6.514468193E0,-1.309197330E1,-3.742228031E0
4.973215504E0,6.671476364E0,-1.350754356E1,-3.450434446E0
4.983214304E0,6.377309322E0,-1.396385002E1,-3.183935881E0
4.993213037E0,6.181871414E0,-1.416585541E1,-3.411098957E0
5.003211703E0,5.979572296E0,-1.412562370E1,-3.514509201E0
5.013210436E0,5.869693756E0,-1.391958618E1,-3.486182690E0
5.023209202E0,5.905984879E0,-1.372939205E1,-3.268190145E0
5.033207968E0,5.975325584E0,-1.353928566E1,-3.160701752E0
5.043206734E0,6.098732948E0,-1.341979218E1,-3.183594465E0
5.053205500E0,6.400840759E0,-1.332778645E1,-3.098970890E0
5.063204266E0,6.812203407E0,-1.324712467E1,-3.200305939E0
5.073203032E0,7.160457611E0,-1.318289471E1,-3.190001965E0
5.083201732E0,7.480400562E0,-1.322584820E1,-3.320380688E0
5.093200498E0,7.669784546E0,-1.328334618E1,-3.531565666E0
5.103199264E0,7.621284962E0,-1.316527462E1,-3.806116581E0
5.113197964E0,7.676279068E0,-1.302196884E1,-3.976194859E0
5.123196730E0,7.557010651E0,-1.303038788E1,-4.220446110E0
5.133195496E0,7.338419914E0,-1.306665802E1,-4.372958660E0
5.143194262E0,7.211084366E0,-1.313777637E1,-4.475790501E0
5.153193028E0,7.236536503E0,-1.296772385E1,-4.504463196E0
5.163191794E0,7.468976974E0,-1.261138153E1,-4.299194336E0
5.173190560E0,7.836749077E0,-1.225788498E1,-3.880636454E0
5.183189326E0,8.038557053E0,-1.211698055E1,-3.244874001E0
5.193188026E0,8.192110062E0,-1.206539726E1,-2.778486729E0
5.203186792E0,8.225940704E0,-1.205420685E1,-2.402657986E0
5.213185558E0,8.205778122E0,-1.209028721E1,-2.290076494E0
5.223184258E0,8.177846909E0,-1.205929756E1,-2.324287891E0
5.233183024E0,7.987351418E0,-1.202373123E1,-2.517009258E0
5.243181790E0,7.668406487E0,-1.194360733E1,-2.637793064E0
5.253180490E0,7.330605030E0,-1.196118546E1,-2.723176003E0
5.263179256E0,7.083255768E0,-1.198256874E1,-3.043133497E0
5.273178022E0,6.817518234E0,-1.212743187E1,-3.291528463E0
5.283176788E0,6.666667461E0,-1.223697853E1,-3.593310833E0
5.293175554E0,6.513434410E0,-1.255463219E1,-3.986778498E0
5.303174320E0,6.180235386E0,-1.293236542E1,-4.537489414E0
5.313173086E0,6.036737919E0,-1.289458179E1,-5.138750076E0
5.323171819E0,5.989089012E0,-1.265404415E1,-5.346992970E0
5.333170485E0,6.093625069E0,-1.214831066E1,-4.961158752E0
5.343169218E0,6.336147308E0,-1.176814365E1,-4.548254013E0
5.353167951E0,6.494539261E0,-1.173957348E1,-3.882355690E0
5.363166617E0,6.581330299E0,-1.197643852E1,-3.573982477E0
5.373165350E0,6.706636429E0,-1.218322086E1,-3.644678116E0
5.383164083E0,7.106998920E0,-1.218773937E1,-4.176745415E0
5.393162816E0,7.711460590E0,-1.229963779E1,-4.772035599E0
5.403161549E0,8.194911957E0,-1.224505806E1,-5.139110565E0
5.413160315E0,8.433811188E0,-1.224057007E1,-4.646053791E0
5.423159048E0,8.563285828E0,-1.225522995E1,-3.984216452E0
5.433157781E0,8.611239433E0,-1.237405968E1,-3.399083614E0
5.443156481E0,8.516047478E0,-1.261329651E1,-3.064149141E0
5.453155247E0,8.265973091E0,-1.316557026E1,-2.957576036E0
5.463153980E0,8.043252945E0,-1.345218277E1,-3.048156023E0
5.473152680E0,7.820684433E0,-1.341823387E1,-3.449331284E0
5.483151413E0,7.820942402E0,-1.288330650E1,-4.143200397E0
5.493150179E0,7.826171875E0,-1.203438091E1,-4.460965633E0
5.503148845E0,7.536767483E0,-1.135388947E1,-4.605072498E0
5.513147611E0,7.057618141E0,-1.117916203E1,-4.235590935E0
5.523146377E0,7.149417877E0,-1.108037949E1,-3.516881943E0
5.533145110E0,7.096268177E0,-1.079351616E1,-3.089498520E0
5.543143876E0,7.306474686E0,-1.059291267E1,-2.788314342E0
5.553142642E0,7.598857880E0,-1.069545174E1,-2.627641201E0
5.563141408E0,7.937847137E0,-1.076863480E1,-2.719553471E0
5.573140241E0,8.504487038E0,-1.076156425E1,-2.887441874E0
5.583138941E0,8.775737762E0,-1.065596962E1,-3.074168205E0
5.593137707E0,9.072525978E0,-1.037167072E1,-2.712173462E0
5.603136473E0,9.253650665E0,-1.006995869E1,-2.249191523E0
5.613135173E0,9.201764107E0,-9.747839928E0,-2.291511297E0
5.623133939E0,9.049016953E0,-9.403261185E0,-2.438964128E0
5.633132705E0,9.065699577E0,-8.989131927E0,-2.497337341E0
5.643131471E0,9.335172653E0,-8.733345032E0,-2.313919544E0
5.653130237E0,9.583342552E0,-8.722135544E0,-2.168959618E0
5.663129003E0,9.463688850E0,-8.694980621E0,-2.034454107E0
5.673127769E0,9.257699013E0,-8.245981216E0,-2.086719751E0
5.683126569E0,9.227312088E0,-7.779172421E0,-2.223199368E0
5.693125302E0,9.173333168E0,-7.285280704E0,-2.101898670E0
5.703124102E0,9.247673988E0,-7.018765450E0,-1.980877399E0
5.713122968E0,9.402004242E0,-6.771774292E0,-1.817830563E0
5.723121868E0,9.667691231E0,-6.601183891E0,-1.687489033E0
5.733120868E0,9.807499886E0,-6.672420502E0,-1.608572006E0
5.743119834E0,9.788919449E0,-7.046922684E0,-1.706981421E0
5.753118767E0,9.794099808E0,-7.626133919E0,-1.885096312E0
5.763117833E0,9.732914925E0,-8.530170441E0,-1.821467638E0
5.773116899E0,9.378783226E0,-9.362735748E0,-2.093864918E0
5.783115999E0,8.961371422E0,-1.020054245E1,-2.289902687E0
5.793115065E0,8.209941864E0,-1.096360588E1,-2.491745234E0
5.803114165E0,7.521590233E0,-1.149110699E1,-2.771477699E0
5.813113231E0,6.802180290E0,-1.174550438E1,-3.082695246E0
5.823112297E0,6.118626595E0,-1.194071960E1,-3.589819431E0
5.833111330E0,5.903306007E0,-1.184973145E1,-4.201526642E0
5.843110396E0,6.106852531E0,-1.155095959E1,-4.773434639E0
5.853109462E0,6.782472610E0,-1.094520664E1,-4.828084946E0
5.863108462E0,7.561767101E0,-1.006653786E1,-4.670556068E0
5.873107462E0,8.162533760E0,-9.635907173E0,-4.470371246E0
5.883106528E0,8.647317886E0,-9.845859528E0,-4.287154198E0
5.893105594E0,8.964637756E0,-1.041798973E1,-3.912670135E0
5.903104660E0,9.222239494E0,-1.095923328E1,-3.600957155E0
5.913103726E0,9.326254845E0,-1.130653286E1,-3.450296402E0
5.923102792E0,9.013829231E0,-1.165036392E1,-3.282866955E0
5.933101858E0,8.624208450E0,-1.176514816E1,-3.173487663E0
5.943100858E0,8.240040779E0,-1.167403126E1,-3.039413929E0
5.953099958E0,7.915802002E0,-1.133851624E1,-3.020830154E0
5.963099024E0,8.054761887E0,-1.095801544E1,-3.050832748E0
5.973098024E0,8.247094154E0,-1.068295765E1,-3.161586285E0
5.983097057E0,8.536476135E0,-1.063193893E1,-2.813386917E0
5.993096090E0,8.960168839E0,-1.056793785E1,-2.952574253E0
6.003095056E0,9.304269791E0,-1.069268227E1,-2.685096741E0
6.013093989E0,9.601416588E0,-1.086522293E1,-2.436159134E0
6.023092855E0,9.847513199E0,-1.098020363E1,-2.130642176E0
6.033091688E0,1.011481094E1,-1.133575249E1,-2.071561575E0
6.043090521E0,9.995291710E0,-1.164871407E1,-2.181263447E0
6.053089321E0,9.511987686E0,-1.210394669E1,-2.115254879E0
6.063088087E0,8.916017532E0,-1.243721676E1,-2.252594948E0
6.073086820E0,8.227998734E0,-1.279216766E1,-2.498605251E0
6.083085486E0,7.585157394E0,-1.296778107E1,-2.834600449E0
6.093084219E0,7.152599335E0,-1.302855015E1,-3.136832714E0
6.103082952E0,6.436383247E0,-1.338949966E1,-3.737454176E0
6.113081618E0,5.934305191E0,-1.353408527E1,-3.844272137E0
6.123080351E0,5.516266823E0,-1.380504131E1,-3.595306873E0
6.133079084E0,5.227077484E0,-1.393641376E1,-3.063011885E0
6.143077817E0,4.980254650E0,-1.408453178E1,-2.990567446E0
6.153076583E0,4.694610596E0,-1.399925613E1,-2.995015383E0
6.163075349E0,4.516883850E0,-1.383289623E1,-3.041709661E0
6.173074115E0,4.422877789E0,-1.346461582E1,-3.302636385E0
6.183072881E0,4.735129833E0,-1.315153790E1,-3.271749258E0
6.193071581E0,5.070137024E0,-1.271265030E1,-3.375749588E0
6.203070347E0,5.296261787E0,-1.228842163E1,-3.121072054E0
6.213069113E0,5.687839508E0,-1.203241348E1,-2.858675003E0
6.223067813E0,5.917531490E0,-1.176058483E1,-2.827261686E0
6.233066579E0,6.300247192E0,-1.149595547E1,-2.968522787E0
6.243065345E0,6.597587585E0,-1.136274052E1,-3.115618229E0
6.253064011E0,6.826755047E0,-1.118746185E1,-3.094501019E0
6.263062777E0,6.863025188E0,-1.115246677E1,-2.774501801E0
6.273061543E0,6.971027374E0,-1.112573242E1,-2.562672853E0
6.283060309E0,7.167527199E0,-1.094873619E1,-2.570662022E0
6.293059075E0,7.194768906E0,-1.090637016E1,-2.673712730E0
6.303057841E0,6.955474854E0,-1.090336323E1,-3.083650351E0
6.313056607E0,6.533447266E0,-1.101002121E1,-3.691460609E0
6.323055373E0,5.981063366E0,-1.154441261E1,-4.171253204E0
6.333054073E0,5.773029327E0,-1.215979576E1,-4.250022888E0
6.343052839E0,5.874638557E0,-1.302670956E1,-3.772819757E0
6.353051605E0,5.810726166E0,-1.331716251E1,-3.574873209E0
6.363050305E0,5.577045441E0,-1.311889648E1,-3.407111168E0
6.373049071E0,5.628137589E0,-1.275646687E1,-3.182233095E0
6.383047837E0,5.731093407E0,-1.256715107E1,-3.124830484E0
6.393046603E0,5.806656837E0,-1.243615723E1,-2.753738165E0
6.403045369E0,6.015002728E0,-1.208446407E1,-2.538329124E0
6.413044135E0,6.365098953E0,-1.156129932E1,-2.563704729E0
6.423042901E0,6.617285728E0,-1.093737888E1,-2.692886353E0
6.433041667E0,6.891647339E0,-1.042809105E1,-2.608142614E0
6.443040367E0,7.225013733E0,-9.951038361E0,-2.616794586E0
6.453039100E0,7.469882965E0,-9.548302650E0,-2.446003199E0
6.463037800E0,7.622467995E0,-9.472901344E0,-2.169705868E0
6.473036433E0,7.808127403E0,-9.683631897E0,-2.163522005E0
6.483035133E0,8.079242706E0,-9.906070709E0,-2.138253689E0
6.493033866E0,8.253290176E0,-9.904069901E0,-2.094895840E0
6.503032499E0,8.290995598E0,-9.925035477E0,-1.946604013E0
6.513031232E0,8.397847176E0,-9.947740555E0,-2.094717026E0
6.523029965E0,8.317055702E0,-1.001339340E1,-2.077423334E0
6.533028698E0,8.072834969E0,-1.008838272E1,-2.197965622E0
6.543027398E0,7.824769020E0,-1.002689075E1,-2.316772461E0
6.553026131E0,7.720690250E0,-1.004559135E1,-2.525266647E0
6.563024864E0,7.769752502E0,-1.008494282E1,-2.505106926E0
6.573023630E0,7.789947033E0,-1.034340954E1,-2.596129179E0
6.583022330E0,7.712300301E0,-1.062382889E1,-2.793755770E0
6.593021096E0,7.679324150E0,-1.096523190E1,-3.177946329E0
6.603019862E0,7.589519978E0,-1.142310810E1,-3.657021046E0
6.613018562E0,7.498171806E0,-1.186721897E1,-4.056972980E0
6.623017328E0,7.498151779E0,-1.215692997E1,-4.079225063E0
6.633016094E0,7.449128628E0,-1.231994343E1,-3.716231585E0
6.643014860E0,7.307170868E0,-1.257128906E1,-3.365994930E0
6.653013626E0,7.329505920E0,-1.281134987E1,-3.229437351E0
6.663012392E0,7.469241142E0,-1.274601269E1,-3.535074234E0
6.673011158E0,7.469312668E0,-1.250477886E1,-3.885905743E0
6.683009924E0,7.670045376E0,-1.178883934E1,-4.050306797E0
6.693008624E0,7.948835850E0,-1.095427895E1,-3.722234726E0
6.703007390E0,7.946773529E0,-1.022520638E1,-3.082419395E0
6.713006156E0,7.943098068E0,-9.860733032E0,-2.342100859E0
6.723004856E0,7.980701923E0,-9.883605003E0,-1.753990650E0
6.733003622E0,8.182913780E0,-1.016045570E1,-1.442797661E0
6.743002388E0,8.285083771E0,-1.027691174E1,-1.150333643E0
6.753001088E0,8.585284233E0,-1.042167854E1,-1.268762589E0
6.762999888E0,8.799403191E0,-1.040693378E1,-1.383281231E0
6.772998688E0,8.783152580E0,-1.034442997E1,-1.525659800E0
6.782997488E0,8.526996613E0,-1.025982380E1,-1.718049288E0
6.792996288E0,7.927195549E0,-1.043932056E1,-1.757635832E0
6.802995154E0,7.937757492E0,-1.049697781E1,-2.000657558E0
6.812993987E0,7.622756958E0,-1.064079857E1,-2.351921082E0
6.822992887E0,7.396221161E0,-1.047636509E1,-2.729791641E0
6.832991720E0,7.454448700E0,-9.761319160E0,-2.874486446E0
6.842990653E0,7.439764977E0,-8.862689972E0,-2.866219997E0
6.852989553E0,7.475197315E0,-8.026032448E0,-2.485257864E0
6.862988386E0,7.605621338E0,-7.602980137E0,-1.968186378E0
6.872987252E0,7.735101223E0,-7.429037094E0,-1.479067087E0
6.882986118E0,7.908653259E0,-7.549118519E0,-9.156832695E-1
6.892984984E0,8.074887276E0,-7.759277821E0,-5.501420498E-1
6.902983850E0,8.469414711E0,-7.849165440E0,-2.503147125E-1
6.912982716E0,8.564025879E0,-7.851464748E0,-8.660936356E-2
6.922981582E0,8.902610779E0,-7.813984871E0,-6.003904343E-2
6.932980448E0,9.197887421E0,-7.611445904E0,6.422615051E-2
6.942979248E0,9.400127411E0,-7.068120480E0,4.626336098E-1
6.952978114E0,9.057357788E0,-6.334392548E0,5.173106194E-1
6.962976980E0,8.453430176E0,-5.751245975E0,3.476395607E-1
6.972975780E0,8.123830795E0,-5.535012722E0,1.962513924E-1
6.982974646E0,8.263936043E0,-5.544070721E0,-7.025718689E-3
6.992973512E0,8.675090790E0,-5.638937473E0,7.063817978E-2
7.002972312E0,9.092090607E0,-5.700229645E0,5.238723755E-2
7.012971178E0,9.423818588E0,-5.902548790E0,8.021354675E-3
7.022970044E0,9.574884415E0,-6.147722721E0,3.969383240E-2
7.032968910E0,9.598606110E0,-6.399894238E0,-1.216955185E-1
7.042967776E0,9.645531654E0,-6.671794891E0,-3.006424904E-1
7.052966642E0,9.596518517E0,-6.885077953E0,-4.956250191E-1
7.062965508E0,9.417073250E0,-7.264276981E0,-6.761112213E-1
7.072964374E0,9.427248001E0,-7.656429768E0,-9.410595894E-1
7.082963174E0,9.243214607E0,-7.996676922E0,-1.020961285E0
7.092962007E0,9.208031654E0,-8.168495178E0,-1.132772923E0
7.102960807E0,8.976220131E0,-8.344119072E0,-1.316012859E0
7.112959540E0,8.728397369E0,-8.545667648E0,-1.381292343E0
7.122958273E0,8.504590034E0,-8.641453743E0,-1.385161400E0
7.132957006E0,8.178479195E0,-8.776873589E0,-1.249993324E0
7.142955739E0,7.885521889E0,-8.687129974E0,-1.117580414E0
7.152954472E0,7.450237274E0,-8.654137611E0,-1.017640591E0
7.162953205E0,7.218736649E0,-8.476473808E0,-9.913907051E-1
7.172951938E0,7.205351830E0,-8.303580284E0,-9.526677132E-1
7.182950671E0,7.303548813E0,-7.926286697E0,-1.059454441E0
7.192949371E0,7.560814381E0,-7.504001617E0,-1.093275070E0
7.202948137E0,7.695233345E0,-7.517896652E0,-1.067188025E0
7.212946903E0,7.849626541E0,-7.791676044E0,-1.039246321E0
7.222945603E0,8.047249794E0,-8.241988182E0,-9.504613876E-1
7.232944369E0,8.144930840E0,-8.617890358E0,-1.000346184E0
7.242943135E0,8.043645859E0,-9.179431915E0,-9.762749672E-1
7.252941835E0,7.657610416E0,-9.579404831E0,-1.005652666E0
7.262940601E0,7.355406284E0,-1.002242851E1,-1.088546276E0
7.272939367E0,7.092008591E0,-1.055972290E1,-1.113328457E0
7.282938133E0,7.051183701E0,-1.105157375E1,-1.454164982E0
7.292936899E0,7.061151505E0,-1.128272533E1,-1.850501776E0
7.302935665E0,7.154690742E0,-1.147086811E1,-2.010161877E0
7.312934431E0,7.411464691E0,-1.145428276E1,-2.261912584E0
7.322933197E0,7.715229034E0,-1.144778061E1,-2.448878765E0
7.332931930E0,7.893649101E0,-1.133600903E1,-2.452260494E0
7.342930696E0,7.998633862E0,-1.125345421E1,-2.048720121E0
7.352929462E0,7.842650414E0,-1.115130711E1,-1.354343176E0
7.362928162E0,7.586701393E0,-1.097715378E1,-6.323344707E-1
7.372926928E0,7.278197765E0,-1.073024464E1,-9.823703766E-2
7.382925694E0,6.940693855E0,-1.031863403E1,2.736248970E-1
7.392924460E0,6.548707008E0,-1.029422760E1,3.080391884E-1
7.402923226E0,6.358568192E0,-1.010982037E1,9.000778198E-3
7.412921992E0,6.645375252E0,-9.924571037E0,-6.360249519E-1
7.422920758E0,6.902307034E0,-9.808489799E0,-1.041891336E0
7.432919524E0,6.864148617E0,-9.827814102E0,-9.308445454E-1
7.442918224E0,6.900250912E0,-1.003960133E1,-6.571140289E-1
7.452916957E0,6.969138145E0,-1.008096218E1,-5.912096500E-1
7.462915690E0,7.065156937E0,-1.008475113E1,-9.875025749E-1
7.472914423E0,7.118594646E0,-1.019380569E1,-1.449413061E0
7.482913156E0,7.185974121E0,-1.044024849E1,-1.818605423E0
7.492911856E0,7.149923325E0,-1.067322254E1,-1.953562260E0
7.502910489E0,6.945997238E0,-1.071231651E1,-1.956584930E0
7.512909222E0,6.655251980E0,-1.078505039E1,-1.811597347E0
7.522907955E0,6.241234779E0,-1.079769802E1,-1.762677670E0
7.532906688E0,5.826684952E0,-1.089713478E1,-1.962515354E0
7.542905421E0,5.382650852E0,-1.082649803E1,-2.417697906E0
7.552904154E0,5.009844303E0,-1.071715450E1,-2.771708965E0
7.562902887E0,5.027727604E0,-1.055665588E1,-2.873474121E0
7.572901620E0,5.302237988E0,-1.004601288E1,-2.514081001E0
7.582900286E0,5.634497166E0,-9.538227081E0,-2.316704273E0
7.592899019E0,5.864368439E0,-9.088476181E0,-1.913732052E0
7.602897785E0,6.020701408E0,-8.799324989E0,-1.550188780E0
7.612896485E0,6.344142914E0,-9.180277824E0,-1.069487572E0
7.622895251E0,6.497920990E0,-9.777078629E0,-8.418262005E-1
7.632893984E0,6.637053490E0,-9.969202995E0,-9.289424419E-1
7.642892750E0,6.735134125E0,-9.863781929E0,-1.153226614E0
7.652891516E0,6.763742447E0,-9.732321739E0,-1.085047483E0
7.662890282E0,6.704510689E0,-9.587294579E0,-1.002901554E0
7.672889048E0,6.723422050E0,-9.457750320E0,-6.983830929E-1
7.682887814E0,6.896489143E0,-9.180232048E0,-6.406645775E-1
7.692886514E0,7.263012886E0,-8.912899017E0,-1.890981197E-1
7.702885280E0,7.339202881E0,-8.595819473E0,2.458031178E-1
7.712884046E0,7.289661884E0,-8.420976639E0,4.703552723E-1
7.722882746E0,7.301302433E0,-8.252594948E0,5.158476830E-1
7.732881512E0,6.997839928E0,-8.318226814E0,5.924515724E-1
7.742880278E0,6.831934929E0,-8.448591232E0,4.915988445E-1
7.752879011E0,6.572969437E0,-8.770167351E0,2.728509903E-1
7.762877811E0,6.479587555E0,-9.176317215E0,-1.380836964E-1
7.772876544E0,6.549428940E0,-9.649349213E0,-6.524553299E-1
7.782875344E0,6.815686226E0,-9.816225052E0,-9.271416664E-1
7.792874144E0,7.192824364E0,-9.826281548E0,-8.503127098E-1
7.802872944E0,7.500974655E0,-9.591330528E0,-6.485443115E-1
7.812871710E0,7.517306328E0,-9.214559555E0,-2.883787155E-1
7.822870476E0,7.109797478E0,-8.785219193E0,-2.556719780E-1
7.832869209E0,6.921465874E0,-8.578946114E0,-3.551073074E-1
7.842868009E0,7.099998474E0,-8.579828262E0,-2.117929459E-1
7.852866909E0,7.193816185E0,-8.993560791E0,-5.673408508E-2
7.862865809E0,7.128178120E0,-9.283030510E0,-6.189346313E-1
7.872864775E0,7.200769424E0,-9.535003662E0,-7.844028473E-1
7.882863775E0,7.284762383E0,-9.906476021E0,-8.236947060E-1
7.892862775E0,7.227987289E0,-1.016745758E1,-7.513952255E-1
7.902861775E0,7.135953903E0,-1.021614933E1,-4.201478958E-1
7.912860841E0,7.133390427E0,-1.039117718E1,-2.018389702E-1
7.922859907E0,7.147674561E0,-1.054168606E1,1.017613411E-1
7.932858973E0,7.236240864E0,-1.062461090E1,8.454370499E-2
7.942857973E0,7.418501854E0,-1.054558754E1,-3.197426796E-1
7.952857039E0,7.471136093E0,-1.028306007E1,-5.446624756E-1
7.962856105E0,7.601932049E0,-9.878195763E0,-6.227540970E-1
7.972855105E0,7.491078854E0,-9.475454330E0,-3.806991577E-1
7.982854171E0,7.116382122E0,-9.029612541E0,-2.559118271E-1
7.992853237E0,6.701838970E0,-8.549881935E0,-6.832838058E-2
8.002852237E0,6.247488499E0,-8.219263077E0,2.219409943E-1
8.012851303E0,5.914380074E0,-8.187440872E0,7.842974663E-1
8.022850369E0,6.068553925E0,-8.326335907E0,1.003962517E0
8.032849469E0,6.445923805E0,-8.600921631E0,1.348048687E0
8.042848535E0,6.934758663E0,-8.911162376E0,1.449171066E0
8.052847601E0,7.174554348E0,-9.064915657E0,1.292817116E0
8.062846667E0,7.222714901E0,-9.041568756E0,7.293648720E-1
8.072845733E0,7.309835434E0,-8.845155716E0,3.202805519E-1
8.082844733E0,7.173990726E0,-8.708846092E0,3.793330193E-1
8.092843799E0,6.992700100E0,-8.363297462E0,4.150056839E-1
8.102842865E0,6.520827770E0,-8.198454857E0,9.265689850E-1
8.112841865E0,6.399611950E0,-7.893911362E0,1.076643467E0
8.122840931E0,6.511197090E0,-7.608397961E0,1.184302807E0
8.132839964E0,6.331423759E0,-7.485455990E0,1.632287025E0
8.142838997E0,6.048515797E0,-7.279135227E0,2.258901119E0
8.152837930E0,6.221333027E0,-7.051294327E0,2.196840763E0
8.162836796E0,6.420366287E0,-6.884172440E0,2.335145473E0
8.172835662E0,6.757636547E0,-6.771709442E0,2.693826675E0
8.182834495E0,7.161486626E0,-6.700172424E0,3.107998371E0
8.192833261E0,7.463773727E0,-6.451959610E0,3.408531189E0
8.202832061E0,7.414240360E0,-6.226002216E0,3.405293941E0
8.212830794E0,7.290707588E0,-5.695326328E0,3.411902905E0
8.222829460E0,6.897478104E0,-5.426793575E0,3.104667187E0
8.232828193E0,7.010666847E0,-5.711388111E0,2.746306896E0
8.242826926E0,7.345710754E0,-6.306893826E0,2.161572456E0
8.252825592E0,7.592397213E0,-6.890929222E0,1.684411049E0
8.262824325E0,7.557887077E0,-7.054273605E0,1.442908287E0
8.272823058E0,7.244949818E0,-7.161435127E0,1.388752460E0
8.282821791E0,6.822382450E0,-7.146579742E0,1.381858826E0
8.292820524E0,6.597438812E0,-7.262348652E0,1.318298340E0
8.302819290E0,6.432498455E0,-7.415802956E0,1.386178017E0
8.312818056E0,6.508434772E0,-7.365737438E0,1.181806087E0
8.322816822E0,6.322750092E0,-7.426995277E0,1.317975521E0
8.332815488E0,6.342914104E0,-7.308384895E0,1.315186977E0
8.342814254E0,6.378313065E0,-7.257925987E0,1.359385014E0
8.352813020E0,6.476199627E0,-7.199323654E0,1.534947872E0
8.362811720E0,6.454164982E0,-7.229133606E0,1.648320198E0
8.372810486E0,6.650319099E0,-7.221618176E0,1.749219894E0
8.382809252E0,6.812780380E0,-7.201912880E0,1.732736588E0
8.392808018E0,6.945699692E0,-7.356829643E0,1.714398384E0
8.402806784E0,7.112487316E0,-7.432264805E0,1.697878361E0
8.412805550E0,7.218279362E0,-7.466657639E0,1.751590729E0
8.422804316E0,7.246718407E0,-7.610759735E0,1.635752678E0
8.432803082E0,7.336158276E0,-7.615286350E0,1.487383366E0
8.442801782E0,7.286158562E0,-7.723486423E0,1.336853981E0
8.452800548E0,6.994822979E0,-7.870710373E0,1.161680222E0
8.462799281E0,6.769463539E0,-8.007881165E0,1.087929249E0
8.472797947E0,6.358300686E0,-8.485128403E0,9.314384460E-1
8.482796713E0,5.847627163E0,-9.057318687E0,8.452901840E-1
8.492795446E0,5.340229988E0,-9.450752258E0,7.314605713E-1
8.502794112E0,5.010293007E0,-9.917418480E0,7.269749641E-1
8.512792878E0,4.843608856E0,-1.020230484E1,5.968999863E-1
8.522791644E0,4.794488907E0,-1.041390038E1,5.328497887E-1
8.532790410E0,4.931256294E0,-1.068684673E1,6.310820580E-1
8.542789143E0,5.059046745E0,-1.086044025E1,8.990526199E-1
8.552787909E0,5.242100716E0,-1.106126118E1,9.520649910E-1
8.562786675E0,5.183127403E0,-1.137719727E1,1.223627567E0
8.572785608E0,5.293819427E0,-1.139416027E1,1.364864826E0
8.582784308E0,5.274559021E0,-1.125470924E1,1.692049980E0
8.592783074E0,5.594875336E0,-1.070549297E1,1.991287231E0
8.602781807E0,5.803900242E0,-1.007504272E1,1.918056011E0
8.612780473E0,5.895972252E0,-9.899582863E0,1.858963013E0
8.622779206E0,5.866348743E0,-9.786197662E0,2.005751133E0
8.632777939E0,5.782201290E0,-1.004906940E1,1.962352037E0
8.642776672E0,5.798453331E0,-1.006322098E1,1.688400030E0
8.652775405E0,5.747333527E0,-1.007027245E1,1.409217358E0
8.662774138E0,5.742189407E0,-9.948779106E0,1.468117714E0
8.672772871E0,5.815249443E0,-9.815289497E0,1.466850281E0
8.682771604E0,5.912023544E0,-9.697587013E0,1.468273878E0
8.692770270E0,5.752265453E0,-9.824668884E0,1.370655060E0
8.702769003E0,5.709879398E0,-1.005410767E1,1.045687199E0
8.712767736E0,5.516274929E0,-1.029561615E1,7.361221313E-1
8.722766436E0,5.401411533E0,-1.019849110E1,5.158219337E-1
8.732765202E0,5.378882885E0,-1.011861134E1,4.264173508E-1
8.742763968E0,5.336525917E0,-1.000998783E1,4.885540009E-1
8.752762668E0,5.355989456E0,-9.642831802E0,7.161297798E-1
8.762761601E0,5.026332855E0,-9.172622681E0,7.199993134E-1
8.772760401E0,4.951857090E0,-8.756593704E0,7.505173683E-1
8.782759167E0,5.043735504E0,-8.535348892E0,8.695955276E-1
8.792757967E0,5.342388153E0,-8.475990295E0,8.409137726E-1
8.802756767E0,5.825424194E0,-8.565152168E0,8.313188553E-1
8.812755533E0,6.328409672E0,-8.788332939E0,5.911240578E-1
8.822754299E0,6.373952866E0,-1.006710815E1,6.490364075E-1
8.832752999E0,6.133534908E0,-1.092395592E1,4.841122627E-1
8.842751799E0,5.634542942E0,-1.136073112E1,4.704952240E-2
8.852750565E0,5.228784084E0,-1.142237091E1,-2.988719940E-1
8.862749265E0,4.958926678E0,-1.117093468E1,-4.398155212E-1
8.872747865E0,4.906812668E0,-1.088022518E1,-2.208995819E-2
8.882746631E0,4.884099483E0,-1.025713730E1,4.402384758E-1
8.892745397E0,4.911685944E0,-9.834932327E0,1.107224464E0
8.902744163E0,4.957868576E0,-9.584990501E0,1.377841949E0
8.912742929E0,5.225490570E0,-9.264280319E0,1.839303732E0
8.922741695E0,5.284809113E0,-9.076623917E0,2.226651907E0
8.932740495E0,5.579977989E0,-8.842354774E0,2.417272806E0
8.942739261E0,5.641070366E0,-8.624134064E0,2.519120693E0
8.952738094E0,5.668652534E0,-8.585115433E0,2.361022949E0
8.962736994E0,5.710258484E0,-8.666211128E0,2.177389383E0
8.972735827E0,5.767799854E0,-8.882981300E0,1.843824625E0
8.982734727E0,5.816556454E0,-9.006033897E0,1.686734438E0
8.992733627E0,5.942995071E0,-9.154915810E0,1.527126312E0
9.002732460E0,6.016832829E0,-9.346226692E0,1.329142570E0
9.012731360E0,6.154823303E0,-9.345438004E0,1.269248009E0
9.022730226E0,6.265141964E0,-9.255343437E0,1.269692898E0
9.032729092E0,6.376786232E0,-9.007471085E0,1.261592865E0
9.042727958E0,6.330520630E0,-8.883567810E0,1.484159470E0
9.052726858E0,6.279398918E0,-8.806397438E0,1.542475224E0
9.062725591E0,6.117488384E0,-8.930908203E0,1.700712204E0
9.072724457E0,6.143987179E0,-9.123250961E0,1.539772987E0
9.082723257E0,6.219491005E0,-9.435222626E0,1.220328331E0
9.092722123E0,6.191122532E0,-9.725098610E0,8.281092644E-1
9.102720989E0,6.059367180E0,-9.864230156E0,4.672174454E-1
9.112719789E0,5.958083630E0,-9.856807709E0,2.287273407E-1
9.122718655E0,6.085645676E0,-9.935553551E0,2.948522568E-1
9.132717521E0,6.054826260E0,-1.019206238E1,6.786122322E-1
9.142716387E0,6.049902916E0,-1.056894207E1,8.608231544E-1
9.152715253E0,6.081600666E0,-1.091005325E1,8.665046692E-1
9.162714119E0,6.088452816E0,-1.111217403E1,5.416135788E-1
9.172712985E0,6.168579102E0,-1.118465614E1,1.757884026E-1
9.182711851E0,6.237515926E0,-1.122653961E1,-1.208829880E-2
9.192710651E0,5.869122505E0,-1.128991222E1,-1.872038841E-1
9.202709517E0,5.507865429E0,-1.096940994E1,-2.459092140E-1
9.212708383E0,5.169705868E0,-1.047940159E1,-3.472852707E-2
9.222707183E0,5.059020042E0,-1.009663868E1,3.783450127E-1
9.232706016E0,5.161234856E0,-9.746318817E0,9.937858582E-1
9.242704816E0,5.460821152E0,-9.662907600E0,1.607017994E0
9.252703549E0,6.000564098E0,-9.782459259E0,2.130001545E0
9.262702282E0,6.409819603E0,-9.836356163E0,2.136344910E0
9.272701015E0,6.866357327E0,-9.980502129E0,2.042118073E0
9.282699748E0,7.017266273E0,-9.994372368E0,1.453335762E0
9.292698481E0,6.941465378E0,-9.680766106E0,1.057188988E0
9.302697214E0,6.649758339E0,-8.875035286E0,9.170541763E-1
9.312695947E0,6.116442204E0,-8.050301552E0,1.274027824E0
9.322694680E0,5.801174641E0,-7.406613827E0,1.481585503E0
9.332693380E0,5.548125267E0,-6.910823822E0,1.769703865E0
9.342692146E0,5.714527130E0,-6.490820885E0,1.977533817E0
9.352690879E0,5.833108425E0,-6.135837555E0,2.479361534E0
9.362689579E0,5.932722092E0,-6.123133183E0,2.911813736E0
9.372688345E0,6.208983421E0,-6.012310505E0,3.226246357E0
9.382687111E0,6.511950970E0,-5.707939148E0,3.586999655E0
9.392685877E0,6.651077747E0,-5.294694424E0,3.912379026E0
9.402684643E0,6.515817165E0,-5.020488739E0,4.006891251E0
9.412683409E0,6.152366161E0,-4.799088478E0,4.010248184E0
9.422682175E0,5.698906422E0,-4.989729881E0,3.848743200E0
9.432680941E0,5.904467583E0,-5.583278656E0,3.550769567E0
9.442679641E0,6.247190475E0,-6.404767990E0,3.137795448E0
9.452678374E0,6.489400864E0,-7.072349072E0,2.395195961E0
9.462677107E0,6.621723175E0,-7.506627560E0,1.698582172E0
9.472675773E0,6.113276482E0,-7.651332855E0,9.132089615E-1
9.482674506E0,5.651094437E0,-7.683476448E0,5.432777405E-1
9.492673239E0,5.379465103E0,-7.816877842E0,6.428518295E-1
9.502671905E0,5.246120453E0,-7.650758743E0,6.750655174E-1
9.512670671E0,5.209610462E0,-7.553306103E0,8.876433372E-1
9.522669404E0,5.358988285E0,-7.593357086E0,9.064798355E-1
9.532668170E0,5.519836426E0,-7.744903088E0,9.444875717E-1
9.542666936E0,5.767431259E0,-7.954486370E0,1.129974365E0
9.552665702E0,5.936394215E0,-7.998874664E0,1.135186672E0
9.562664502E0,6.013193607E0,-7.988357544E0,1.217921734E0
9.572663268E0,5.912230492E0,-7.793402672E0,1.355861187E0
9.582661968E0,5.769928932E0,-7.650903702E0,1.558376789E0
9.592660734E0,5.536078453E0,-7.346657753E0,1.624031067E0
9.602659500E0,5.471572399E0,-7.075508595E0,1.569604397E0
9.612658200E0,5.549890041E0,-6.881295681E0,1.443023682E0
9.622656966E0,5.609842777E0,-6.772305965E0,1.314315796E0
9.632655699E0,5.614367485E0,-6.646704674E0,1.107993603E0
9.642654432E0,5.680387020E0,-6.506142139E0,9.369783401E-1
9.652653165E0,5.742547512E0,-6.326164722E0,8.930506706E-1
9.662651898E0,5.746888161E0,-6.144783974E0,9.752821922E-1
9.672650631E0,6.056428909E0,-6.010556698E0,8.213152885E-1
9.682649364E0,6.761902809E0,-5.945835590E0,3.872098923E-1
9.692648030E0,7.550111294E0,-6.054669857E0,-3.225698471E-1
9.702646763E0,8.213365555E0,-6.159646511E0,-6.247987747E-1
9.712645496E0,8.778996468E0,-6.694870949E0,-4.741086960E-1
9.722644162E0,9.387215614E0,-7.594558239E0,4.387807846E-2
9.732643028E0,9.426580429E0,-8.460795403E0,4.918937683E-1
9.742641761E0,9.136532784E0,-9.315744400E0,5.632710457E-1
9.752640494E0,8.722389221E0,-1.010790348E1,3.484511375E-1
9.762639294E0,8.080706596E0,-1.088028622E1,1.731796265E-1
9.772638094E0,7.318220615E0,-1.156077194E1,1.689257622E-1
9.782636894E0,6.765481472E0,-1.168070507E1,1.298602104E0
9.792635694E0,5.929598808E0,-1.183500576E1,1.193543434E0
9.802634494E0,5.230690956E0,-1.193800831E1,1.988572121E0
9.812633260E0,4.483201027E0,-1.169062233E1,2.513104200E0
9.822632060E0,4.005623817E0,-1.133704662E1,2.118873358E0
9.832630760E0,3.648730278E0,-1.086307430E1,1.812036753E0
9.842629526E0,3.689216614E0,-1.014721775E1,1.071070194E0
9.852628292E0,3.867624283E0,-9.829796791E0,7.301731110E-1
9.862626958E0,4.094748020E0,-9.739581108E0,5.267767906E-1
9.872625724E0,4.544877052E0,-9.943136215E0,4.223370552E-1
9.882624490E0,4.943670273E0,-1.031932163E1,2.250156403E-1
9.892623256E0,5.262253761E0,-1.055686760E1,-3.606462479E-2
9.902622022E0,5.386630535E0,-1.045584583E1,2.290186882E-1
9.912620788E0,5.549777031E0,-9.892233849E0,4.524192810E-1
9.922619554E0,5.557376862E0,-9.361188889E0,7.325143814E-1
9.932618320E0,5.545505047E0,-8.746744156E0,1.064664602E0
9.942617020E0,5.396280289E0,-8.020280838E0,1.101348639E0
9.952615786E0,5.343455315E0,-7.583199501E0,1.022253752E0
9.962614552E0,5.329244614E0,-7.130773544E0,1.200615406E0
9.972613285E0,5.075526237E0,-6.804441929E0,1.236028671E0
9.982612085E0,4.727963924E0,-6.561857700E0,8.798038960E-1
9.992610985E0,4.416906357E0,-6.597425461E0,6.544995308E-1
1.000260988E1,4.151772022E0,-6.866822243E0,3.976025581E-1
1.001260885E1,4.390089035E0,-7.350143909E0,2.689204216E-1
1.002260785E1,5.052555084E0,-8.792894363E0,1.459770203E-1
1.003260672E1,5.459627151E0,-1.033397102E1,-4.777002335E-2
1.004260575E1,5.616553307E0,-1.093617249E1,2.239656448E-2
1.005260478E1,5.524678707E0,-1.107684326E1,-1.967668533E-2
1.006260382E1,5.379251480E0,-1.094497681E1,-4.146742821E-1
1.007260292E1,5.261384010E0,-1.071442699E1,-4.522414207E-1
1.008260195E1,5.114641190E0,-1.024666309E1,-1.481018066E-1
1.009260105E1,5.128800392E0,-9.494216919E0,1.873025894E-1
1.010260015E1,5.181923389E0,-8.813169479E0,8.219752312E-1
1.011259918E1,5.460557938E0,-8.400592804E0,1.211040974E0
1.012259828E1,5.813471794E0,-8.112242699E0,1.700792313E0
1.013259738E1,5.925870419E0,-8.116990089E0,1.928273201E0
1.014259648E1,6.186638832E0,-8.185720444E0,1.990193129E0
1.015259558E1,6.596664906E0,-8.296792984E0,2.156212091E0
1.016259468E1,6.873040676E0,-8.380839348E0,2.363518238E0
1.017259378E1,6.993982315E0,-8.395658493E0,2.184087515E0
1.018259288E1,6.924713135E0,-8.342454910E0,1.765791655E0
1.019259192E1,6.849843025E0,-8.291974068E0,1.572956562E0
1.020259102E1,6.778102875E0,-8.089268684E0,1.399635315E0
1.021259012E1,6.720372677E0,-7.838659763E0,1.443774223E0
1.022258915E1,6.843771935E0,-7.482719421E0,1.473165989E0
1.023258825E1,6.899927616E0,-7.265868187E0,1.443856716E0
1.024258735E1,6.930650711E0,-7.141569614E0,1.526603699E0
1.025258645E1,7.026444912E0,-6.982760906E0,1.639721632E0
1.026258555E1,7.295841694E0,-6.816929340E0,1.637366056E0
1.027258461E1,7.285615444E0,-6.792976379E0,1.680734158E0
1.028258368E1,7.273249626E0,-6.839659691E0,1.629508018E0
1.029258265E1,7.011981964E0,-7.106182098E0,1.592824459E0
1.030258155E1,6.659079075E0,-7.489173889E0,1.227638245E0
1.031258045E1,6.584051132E0,-8.163167000E0,4.488420486E-1
1.032257931E1,6.291100502E0,-8.745175362E0,-9.046554565E-2
1.033257811E1,6.019516945E0,-9.128075600E0,-6.787219048E-1
1.034257695E1,5.697434425E0,-9.264807701E0,-6.354904175E-1
1.035257575E1,5.507348061E0,-9.151008606E0,-1.505885124E-1
1.036257448E1,5.382626534E0,-9.130218506E0,6.279888153E-1
1.037257321E1,5.184030056E0,-9.429479599E0,1.459232807E0
1.038257194E1,5.303271294E0,-9.558066368E0,1.774826527E0
1.039257068E1,5.269958973E0,-9.597867966E0,1.532122612E0
1.040256941E1,5.445970535E0,-9.531833649E0,9.223914146E-1
1.041256818E1,5.361542702E0,-9.122787476E0,4.788722992E-1
1.042256694E1,5.110673904E0,-8.421668053E0,-1.382207870E-2
1.043256571E1,4.948926926E0,-7.507057190E0,-2.949304581E-1
1.044256441E1,4.978287697E0,-7.013349056E0,9.009742737E-2
1.045256317E1,5.418388367E0,-6.831347942E0,1.025686741E0
1.046256191E1,6.085055351E0,-6.859805107E0,2.139428139E0
1.047256057E1,6.569225311E0,-6.895871162E0,2.922690630E0
1.048255931E1,6.808184147E0,-6.903038979E0,3.371739626E0
1.049255804E1,6.650501251E0,-6.733119488E0,3.428039312E0
1.050255677E1,6.328370571E0,-6.594172478E0,2.847353935E0
1.051255554E1,6.065047741E0,-6.577396870E0,2.285945892E0
1.052255430E1,5.976655006E0,-6.443425655E0,1.846582890E0
1.053255307E1,5.651247978E0,-6.151964664E0,1.932722092E0
1.054255184E1,5.104074955E0,-5.656175137E0,2.555854797E0
1.055255064E1,4.862058640E0,-5.098749161E0,3.387933969E0
1.056254940E1,4.637236595E0,-4.592864037E0,4.307349682E0
1.057254817E1,4.872112751E0,-4.401199341E0,4.627264977E0
1.058254687E1,5.768573761E0,-4.490687847E0,3.848552942E0
1.059254563E1,7.097710609E0,-4.884980679E0,2.667060852E0
1.060254440E1,7.509240627E0,-5.121903419E0,2.383115768E0
1.061254310E1,7.048464775E0,-5.316398621E0,3.176359653E0
1.062254187E1,6.348826408E0,-5.775135517E0,3.500874281E0
1.063254063E1,6.087410450E0,-6.044252872E0,3.275299072E0
1.064253940E1,5.900926590E0,-5.955892563E0,2.746910572E0
1.065253816E1,5.501136780E0,-5.485275745E0,2.221350193E0
1.066253693E1,5.234213829E0,-5.088447571E0,2.056433201E0
1.067253570E1,5.185427189E0,-4.688822269E0,2.016946793E0
1.068253446E1,5.367384911E0,-4.354049206E0,2.219753265E0
1.069253316E1,5.439297676E0,-4.180075169E0,2.545892239E0
1.070253193E1,5.485670567E0,-3.999870539E0,2.761923790E0
1.071253066E1,5.486947536E0,-4.036158562E0,2.975245476E0
1.072252933E1,5.723992825E0,-4.047032356E0,2.995352268E0
1.073252806E1,6.151165009E0,-4.227434635E0,3.054576874E0
1.074252679E1,6.613882065E0,-4.465156555E0,2.830817699E0
1.075252553E1,6.831250668E0,-4.837803841E0,2.631186485E0
1.076252429E1,6.854089260E0,-5.246852875E0,2.505388260E0
1.077252306E1,6.596651554E0,-5.544033051E0,2.531567574E0
1.078252182E1,6.199541092E0,-5.808169365E0,2.546411991E0
1.079252059E1,5.830413818E0,-6.099712849E0,2.178431511E0
1.080251932E1,5.593710899E0,-6.514635563E0,1.315059185E0
1.081251809E1,5.631389618E0,-6.890581131E0,5.637125969E-1
1.082251686E1,5.793606281E0,-7.166452408E0,1.499037743E-1
1.083251559E1,5.687469006E0,-7.627138138E0,-2.706441879E-1
1.084251435E1,5.796590805E0,-7.877765179E0,-5.687522888E-1
1.085251302E1,5.962015152E0,-8.206311226E0,-7.070393562E-1
1.086251172E1,5.802786827E0,-8.459150314E0,-5.376658440E-1
1.087251049E1,5.537776947E0,-8.594047546E0,-2.366466522E-1
1.088250925E1,5.526876450E0,-8.572661400E0,-3.570175171E-2
1.089250802E1,5.487248898E0,-8.711052895E0,-3.569841385E-2
1.090250678E1,6.041013718E0,-8.568539619E0,4.626059532E-1
1.091250555E1,6.209928513E0,-8.830848694E0,7.584748268E-1
1.092250432E1,6.199587822E0,-9.202506065E0,1.164887905E0
1.093250308E1,6.380692482E0,-9.614769936E0,2.730403185E0
1.094250178E1,6.094611645E0,-9.734040260E0,2.359305620E0
1.095250055E1,5.740838051E0,-9.463066101E0,2.040265083E0
1.096249931E1,5.481865883E0,-8.927571297E0,1.802152872E0
1.097249801E1,5.414066315E0,-8.387882233E0,1.937913418E0
1.098249678E1,5.402585506E0,-7.912423134E0,1.762536764E0
1.099249555E1,5.260817528E0,-7.572722435E0,1.905205011E0
1.100268237E1,5.210100174E0,-7.473304749E0,2.168164730E0
1.101268114E1,5.276938438E0,-7.200721741E0,1.772183895E0
1.102267990E1,5.598224640E0,-6.996343136E0,1.388332367E0
1.103267867E1,5.638040543E0,-7.120804787E0,1.261625290E0
1.104267744E1,5.667400837E0,-7.322544098E0,1.352545977E0
1.105267614E1,5.883822441E0,-7.323491096E0,1.710083008E0
1.106267490E1,5.957581997E0,-7.293680668E0,1.709470749E0
1.107267370E1,6.035522461E0,-7.300701141E0,1.655005932E0
1.108267253E1,6.127882957E0,-7.488951206E0,1.643535137E0
1.109267143E1,5.768647671E0,-7.846802711E0,1.273558378E0
1.110267037E1,5.735587120E0,-7.848299503E0,1.209620237E0
1.111266927E1,5.664985180E0,-7.850274563E0,1.105638266E0
1.112266823E1,4.624938965E0,-7.983031750E0,5.844321251E-1
1.113266720E1,4.212673187E0,-7.829029083E0,3.797249794E-1
1.114266620E1,3.970153332E0,-7.646559715E0,1.703467369E-1
1.115266527E1,3.830459595E0,-7.498262405E0,-1.122531891E-1
1.116266433E1,3.891991138E0,-7.407833576E0,-2.500348091E-1
1.117266340E1,4.026970387E0,-7.297863960E0,-2.887358665E-1
1.118266246E1,4.503389835E0,-7.375782013E0,-2.060651779E-1
1.119266146E1,4.508801460E0,-7.775643349E0,-3.825483322E-1
1.120266053E1,4.506262302E0,-8.260624886E0,-4.837403297E-1
1.121265960E1,4.683529854E0,-8.682882309E0,-3.231911659E-1
1.122265860E1,5.016883373E0,-8.495026588E0,-3.916869164E-1
1.123265766E1,5.278346062E0,-8.098153114E0,-1.379919052E-2
1.124265673E1,5.342382431E0,-7.841988564E0,4.630463123E-1
1.125265579E1,5.280990601E0,-7.835040092E0,6.224961281E-1
1.126265486E1,5.080731392E0,-7.885936260E0,4.810233116E-1
1.127265392E1,4.846780777E0,-7.852656841E0,5.633678436E-1
1.128265299E1,4.774167061E0,-7.803386688E0,1.192350388E-1
1.129265206E1,4.929683685E0,-7.781291962E0,-1.367311478E-1
1.130265106E1,4.825440407E0,-7.747206688E0,1.560869217E-1
1.131265012E1,4.847300529E0,-7.651912689E0,3.435926437E-1
1.132264919E1,4.800335884E0,-7.646190166E0,2.518949509E-1
1.133264819E1,4.891385078E0,-7.504559994E0,6.391525269E-1
1.134264726E1,5.354133606E0,-7.300593853E0,1.492506266E0
1.135264632E1,5.940537930E0,-7.381608963E0,2.096999645E0
1.136264532E1,6.705216408E0,-7.517451286E0,2.568710089E0
1.137264435E1,7.144724846E0,-7.407325745E0,2.160987139E0
1.138264329E1,7.261676788E0,-6.943966389E0,1.830920458E0
1.139264222E1,7.210356712E0,-6.364461899E0,2.004512548E0
1.140264109E1,7.067610264E0,-5.898948669E0,2.293404818E0
1.141263992E1,6.889020920E0,-5.814303875E0,2.837068081E0
1.142263875E1,6.954890251E0,-5.720980167E0,3.261435509E0
1.143263755E1,7.023671150E0,-5.960705757E0,3.388392925E0
1.144263628E1,6.964107037E0,-6.236544609E0,2.851229668E0
1.145263499E1,6.860241890E0,-6.379008770E0,1.724088669E0
1.146263372E1,6.641948223E0,-6.758954048E0,5.964241028E-1
1.147263242E1,6.410182476E0,-7.188017368E0,2.049293518E-1
1.148263112E1,6.225956917E0,-7.633769989E0,2.018189430E-1
1.149262985E1,6.106075287E0,-8.204439163E0,2.382187843E-1
1.150262858E1,5.911253452E0,-8.797911644E0,2.430653572E-1
1.151262732E1,5.829789162E0,-9.371711731E0,6.221899986E-1
1.152262605E1,6.033692837E0,-9.569400787E0,3.085708618E-2
1.153262475E1,6.519290447E0,-9.255250931E0,-2.244806290E-1
1.154262348E1,6.311659336E0,-8.854713440E0,-1.021528244E-2
1.155262218E1,5.551028728E0,-8.281732559E0,4.540929794E-1
1.156262095E1,5.014697075E0,-7.885889530E0,6.059503555E-1
1.157261972E1,4.449864388E0,-7.684747696E0,-3.052902222E-2
1.158261842E1,4.366311073E0,-7.208601952E0,-1.045248032E0
1.159261718E1,5.105841637E0,-6.453972340E0,-1.025647640E0
1.160261595E1,5.785193920E0,-6.161351204E0,1.391973495E-1
1.161261465E1,6.085135460E0,-6.055254459E0,1.777605057E0
1.162261341E1,6.164364338E0,-6.070802212E0,2.910525560E0
1.163261218E1,5.967091084E0,-6.331406593E0,3.684464216E0
1.164261101E1,5.652397156E0,-6.750117302E0,3.282265186E0
1.165260978E1,5.222048283E0,-6.906477928E0,1.981146336E0
1.166260854E1,5.498243809E0,-6.250280380E0,1.412645817E0
1.167260731E1,4.920487404E0,-5.449513435E0,9.807634354E-1
1.168260608E1,4.553488731E0,-4.399788857E0,1.584687710E0
1.169260478E1,4.283750534E0,-3.963137627E0,2.420316696E0
1.170260354E1,4.393659115E0,-3.883909941E0,3.234917641E0
1.171260231E1,4.832220078E0,-4.105118752E0,3.948236704E0
1.172260101E1,5.541272163E0,-4.464467049E0,3.794930220E0
1.173259977E1,5.947030544E0,-4.512740135E0,3.359919786E0
1.174259854E1,5.860651016E0,-4.241555214E0,3.660471916E0
1.175259734E1,5.396159649E0,-3.843339920E0,3.632876635E0
1.176259611E1,4.623802662E0,-3.556502581E0,3.710344315E0
1.177259484E1,4.334817410E0,-3.586869955E0,4.463178158E0
1.178259364E1,4.699634075E0,-3.881325006E0,4.795119762E0
1.179259240E1,5.818255424E0,-4.724349022E0,4.325133324E0
1.180259111E1,6.631673336E0,-5.284899235E0,3.873274088E0
1.181258987E1,6.611341476E0,-5.211341381E0,3.702420950E0
1.182258864E1,6.092558384E0,-4.638273239E0,3.544315338E0
1.183258737E1,5.554341793E0,-3.936649084E0,3.164628506E0
1.184258614E1,5.512391090E0,-3.449212313E0,2.720170021E0
1.185258487E1,5.559391975E0,-3.345017195E0,2.099087715E0
1.186258354E1,5.815899372E0,-3.527010441E0,1.714355946E0
1.187258227E1,6.066441059E0,-3.921829462E0,1.440085411E0
1.188258100E1,6.304707050E0,-4.355860710E0,1.306059837E0
1.189257973E1,6.373956203E0,-4.514571190E0,1.082085133E0
1.190257847E1,5.931065083E0,-4.649005890E0,8.484034538E-1
1.191257720E1,5.671304226E0,-4.738174915E0,7.669525146E-1
1.192257593E1,5.673498154E0,-4.829609394E0,9.122071266E-1
1.193257467E1,5.922766209E0,-4.928724766E0,1.280425072E0
1.194257330E1,6.077874184E0,-5.051560402E0,1.475282192E0
1.195257206E1,6.399039268E0,-5.201607227E0,1.460959435E0
1.196257083E1,6.725208759E0,-5.185958862E0,1.517543316E0
1.197256953E1,6.893234730E0,-5.145081043E0,1.449934006E0
1.198256830E1,6.780353069E0,-5.006534100E0,1.660526752E0
1.199256710E1,6.396866798E0,-4.964904785E0,1.564388275E0
1.200256586E1,5.867082119E0,-5.063374043E0,1.247008324E0
1.201256463E1,5.796161652E0,-5.272850037E0,7.354722023E-1
1.202256340E1,6.098710537E0,-5.831459045E0,3.159747124E-1
1.203256216E1,6.382992268E0,-6.389788151E0,-1.370105743E-1
1.204256093E1,6.575793266E0,-6.753011227E0,3.346300125E-2
1.205255963E1,6.426516533E0,-7.178211212E0,3.542976379E-1
1.206255839E1,5.672761917E0,-7.518426895E0,2.990083694E-1
1.207255716E1,5.581177711E0,-8.073702812E0,6.735796928E-1
1.208255586E1,4.958552361E0,-8.737483978E0,1.132916927E0
1.209255462E1,4.611241817E0,-8.517904282E0,1.307920933E0
1.210255339E1,4.407305241E0,-8.248689651E0,1.349303961E0
1.211255209E1,4.567689419E0,-7.667435646E0,1.490763187E0
1.212255086E1,5.050212860E0,-7.022005081E0,1.242409468E0
1.213254962E1,5.365318298E0,-6.750140667E0,1.310216904E0
1.214254839E1,5.711123943E0,-6.666794300E0,1.132700443E0
1.215254716E1,5.992943764E0,-6.691274643E0,1.039440393E0
1.216254596E1,6.187343597E0,-6.995925903E0,7.689094543E-1
1.217254476E1,6.433989525E0,-7.409525871E0,3.952860832E-1
1.218254359E1,6.424363136E0,-7.754078388E0,6.291575432E-1
1.219254242E1,6.281645775E0,-7.868916512E0,9.092590809E-1
1.220254132E1,5.715244293E0,-7.935734749E0,1.357038498E0
1.221254022E1,5.265523911E0,-7.360598087E0,1.344611645E0
1.222253905E1,4.833812714E0,-6.756988525E0,6.768150330E-1
1.223253795E1,4.588726521E0,-6.279088020E0,2.019991875E-1
1.224253682E1,4.493039131E0,-6.036621571E0,-2.681407928E-1
1.225253569E1,4.449316502E0,-6.006144047E0,-3.228225708E-1
1.226253455E1,4.548865795E0,-6.043778419E0,-2.493739128E-1
1.227253342E1,4.735153198E0,-6.164480209E0,1.097817421E-1
1.228253228E1,4.654727936E0,-6.313727379E0,2.477183342E-1
1.229253112E1,4.532620430E0,-6.383172512E0,1.294827461E-1
1.230252992E1,4.100699425E0,-6.481607914E0,-3.892984390E-1
1.231252878E1,3.622583389E0,-6.673786163E0,-5.269997120E-1
1.232252765E1,3.267557621E0,-7.000172615E0,-6.267621517E-1
1.233252645E1,3.304127216E0,-7.333433151E0,-3.776974678E-1
1.234252532E1,3.753785610E0,-7.467525005E0,-2.563400269E-1
1.235252418E1,4.354125977E0,-7.871728897E0,-1.423511505E-1
1.236252298E1,4.981769562E0,-7.924004555E0,1.884698868E-2
1.237252185E1,5.260333061E0,-7.606637955E0,-6.001472473E-2
1.238252071E1,5.427139282E0,-7.168412209E0,-7.045078278E-2
1.239251958E1,5.670795918E0,-6.675739765E0,2.261700630E-1
1.240251844E1,5.760516167E0,-6.036636829E0,4.720888138E-1
1.241251731E1,5.830573082E0,-5.456729889E0,7.325794697E-1
1.242251618E1,6.007304192E0,-4.976865768E0,1.060360193E0
1.243251504E1,6.060222626E0,-4.722711563E0,1.183625937E0
1.244251384E1,6.172022820E0,-4.755748749E0,1.065985918E0
1.245251268E1,6.312710285E0,-4.823986053E0,1.394578934E0
1.246251148E1,6.176346779E0,-4.703372002E0,1.663352966E0
1.247251021E1,6.070781708E0,-4.672011375E0,2.035764694E0
1.248250898E1,6.011363983E0,-4.916682243E0,2.674241066E0
1.249250771E1,5.890430450E0,-5.232243538E0,2.527996063E0
1.250250641E1,5.784503937E0,-5.266601562E0,2.254960060E0
1.251250514E1,5.784080505E0,-5.323924541E0,1.804848671E0
1.252250387E1,6.081635475E0,-5.434170723E0,7.284364700E-1
1.253250261E1,6.149959564E0,-5.653977394E0,4.078116417E-1
1.254250134E1,6.127497673E0,-5.805824280E0,1.020991325E0
1.255250007E1,5.650739670E0,-6.079679966E0,1.508801699E0
1.256249881E1,5.535363674E0,-6.245898724E0,9.907927513E-1
1.257249757E1,5.389523029E0,-6.534124374E0,3.619308472E-1
1.258249627E1,5.422217846E0,-7.002201557E0,-4.193973541E-2
1.259249504E1,5.370874405E0,-7.389824867E0,-2.912688255E-1
1.260249380E1,5.454728603E0,-7.633830547E0,-6.351704597E-1
1.261249250E1,5.379733562E0,-7.892313957E0,-5.689740181E-1
1.262249127E1,5.783148289E0,-7.986820221E0,1.677107811E-1
1.263249004E1,6.137051582E0,-7.881531715E0,3.709716797E-1
1.264248880E1,6.118205070E0,-7.635439873E0,4.408950806E-1
1.265248757E1,5.945888519E0,-7.298954010E0,5.431489944E-1
1.266248633E1,5.988575459E0,-6.829531670E0,9.467434883E-1
1.267248510E1,5.983006477E0,-6.216711998E0,6.186389923E-1
1.268248387E1,5.611873627E0,-5.509595394E0,1.739721298E-1
1.269248257E1,4.937758923E0,-5.091696739E0,6.837344170E-1
1.270248133E1,4.614994526E0,-4.724637508E0,9.047064781E-1
1.271248010E1,4.443507195E0,-4.661901474E0,1.157402039E0
1.272247880E1,4.545897484E0,-4.783253670E0,1.276563644E0
1.273247756E1,4.590942383E0,-5.170433044E0,1.548938751E0
1.274247633E1,4.609407425E0,-5.508726120E0,1.373336792E0
1.275247513E1,4.766302109E0,-5.376384258E0,8.439297676E-1
1.276247393E1,4.742327213E0,-5.340259075E0,9.711470604E-1
1.277247273E1,4.937288284E0,-5.470952988E0,1.745937347E0
1.278247153E1,5.062123299E0,-5.874520302E0,3.205145121E0
1.279247030E1,5.563434601E0,-5.736886024E0,3.248747110E0
1.280246903E1,5.513270378E0,-5.367533684E0,2.529184818E0
1.281246780E1,5.187749386E0,-5.201904774E0,1.809298992E0
1.282246656E1,5.111760616E0,-4.933876038E0,2.386044979E0
1.283246526E1,5.206422329E0,-4.247154236E0,3.124877930E0
1.284246403E1,5.272891998E0,-3.737010717E0,3.523580074E0
1.285246273E1,5.581072807E0,-3.286822081E0,3.226881504E0
1.286246143E1,5.960965157E0,-2.880566359E0,3.523929834E0
1.287246016E1,6.061202526E0,-2.598198175E0,3.611217499E0
1.288245889E1,5.686230183E0,-2.159758091E0,4.158483982E0
1.289245763E1,5.037639141E0,-1.920804977E0,3.801441431E0
1.290245636E1,4.774349213E0,-2.072175741E0,3.618330002E0
1.291245513E1,5.280356884E0,-2.308091879E0,3.573503971E0
1.292245386E1,5.196409702E0,-2.652061224E0,4.066110611E0
1.293245259E1,5.322785854E0,-2.779276609E0,3.993258238E0
1.294245126E1,5.520168781E0,-2.749132156E0,3.751287937E0
1.295244999E1,5.783133984E0,-2.730444670E0,3.864879370E0
1.296244872E1,5.663646221E0,-2.976295233E0,3.208062410E0
1.297244742E1,5.005317211E0,-3.249812126E0,2.332914352E0
1.298244619E1,4.775967121E0,-3.393591642E0,1.894672871E0
1.299244496E1,4.430812836E0,-3.566693068E0,1.791921139E0
1.300244372E1,4.543934822E0,-3.840042591E0,1.881340504E0
1.301244249E1,4.477873325E0,-4.138898849E0,1.754784584E0
1.302244125E1,3.975114822E0,-4.272917271E0,1.469982147E0
1.303244002E1,3.891662598E0,-4.259966850E0,9.125261307E-1
1.304243879E1,3.965346098E0,-4.076972961E0,7.577843666E-1
1.305243748E1,4.080777168E0,-3.894342899E0,1.264484406E0
1.306243625E1,4.357259274E0,-3.545672894E0,1.768957615E0
1.307243502E1,4.622150421E0,-3.092058659E0,2.140940666E0
1.308243372E1,4.960391998E0,-2.709328651E0,2.337362766E0
1.309243248E1,5.054539680E0,-2.337669373E0,2.012933731E0
1.310243125E1,5.144899368E0,-2.136710644E0,1.807478428E0
1.311242995E1,5.438725948E0,-2.060504913E0,1.323938370E0
1.312242872E1,5.924252510E0,-2.119925499E0,1.289888382E0
1.313242748E1,6.528485775E0,-2.219189644E0,1.198960304E0
1.314242625E1,7.075620651E0,-2.571075439E0,1.208615303E0
1.315242501E1,7.099005699E0,-3.269873619E0,1.392963409E0
1.316242378E1,6.678637505E0,-4.041950703E0,1.434181690E0
1.317242255E1,5.694068909E0,-5.260840893E0,8.290991783E-1
1.318242131E1,4.900985241E0,-6.341508865E0,1.327972412E-1
1.319242001E1,4.233205795E0,-7.404875755E0,-1.855645180E-1
1.320241878E1,3.936507940E0,-8.417013168E0,-4.025683403E-1
1.321241754E1,3.617282629E0,-9.216579437E0,-6.920943260E-1
1.322241638E1,3.629146576E0,-9.427403450E0,-1.108979702E0
1.323241528E1,3.504175425E0,-9.640719414E0,-1.884212494E-1
1.324241424E1,3.109819412E0,-9.178972244E0,-7.442426682E-1
1.325241321E1,3.173011780E0,-8.222644806E0,-1.343474388E-1
1.326241221E1,3.651780605E0,-7.210849762E0,1.967444420E-1
1.327241121E1,4.827539444E0,-6.357655525E0,4.777798653E-1
1.328241021E1,5.302598953E0,-5.991493225E0,6.821660995E-1
1.329240927E1,5.759329796E0,-5.759362221E0,1.314990759E0
1.330240827E1,6.243918896E0,-5.439083099E0,1.545890808E0
1.331240734E1,6.349152565E0,-5.162462234E0,2.104788065E0
1.332240641E1,6.385840416E0,-4.717138290E0,2.415456295E0
1.333240541E1,6.282110214E0,-4.351974487E0,2.479431391E0
1.334240447E1,6.147819519E0,-3.983173847E0,2.577662945E0
1.335240354E1,6.015608788E0,-3.569123030E0,2.171842813E0
1.336240254E1,6.108134747E0,-3.452180386E0,1.993907928E0
1.337240160E1,6.223625660E0,-3.642870903E0,1.832616329E0
1.338240067E1,6.431708813E0,-3.737323046E0,1.944092751E0
1.339239974E1,6.308302402E0,-4.040694237E0,1.369976282E0
1.340239880E1,6.080885887E0,-4.587184906E0,1.064975023E0
1.341239787E1,5.788095951E0,-5.426004887E0,5.081262589E-1
1.342239693E1,5.011413574E0,-6.436836243E0,-3.372726440E-1
1.343239600E1,3.813956738E0,-7.115344048E0,-3.997445107E-1
1.344239500E1,2.453384399E0,-7.707332611E0,-9.212145805E-1
1.345239407E1,1.078774929E0,-8.194414139E0,-1.749154091E0
1.346239310E1,2.838091850E-1,-8.325812340E0,-2.397840023E0
1.347239207E1,2.782368660E-1,-7.793383121E0,-2.123470783E0
1.348239110E1,9.734959602E-1,-6.741023064E0,-1.697830677E0
1.349239016E1,2.067881584E0,-5.520503998E0,-1.506462097E0
1.350238920E1,3.640356541E0,-4.657367706E0,-1.238839149E0
1.351238823E1,5.432610512E0,-4.970352650E0,-5.449261665E-1
1.352238716E1,6.427118301E0,-5.665777206E0,-1.649699211E-1
1.353238610E1,6.669319153E0,-5.883899689E0,-1.277799606E-1
1.354238500E1,6.598019600E0,-5.901190758E0,-3.360147476E-1
1.355238380E1,6.378846169E0,-5.784012794E0,-3.278031349E-1
1.356238263E1,6.165786743E0,-5.530218124E0,-1.748633385E-1
1.357238143E1,5.970329285E0,-5.387804985E0,1.393728256E-1
1.358238016E1,5.897140980E0,-5.182137012E0,7.959342003E-1
1.359237890E1,6.212764263E0,-4.850254059E0,1.496187210E0
1.360237763E1,6.399637222E0,-4.506937504E0,2.283821821E0
1.361237629E1,6.382129669E0,-4.124881744E0,2.937313795E0
1.362237503E1,5.998028755E0,-3.743492365E0,2.868613243E0
1.363237376E1,5.526443481E0,-3.597498655E0,2.675700903E0
1.364237253E1,5.063329697E0,-3.915708065E0,2.340054750E0
1.365237126E1,4.899292946E0,-4.488416672E0,1.647836208E0
1.366236999E1,4.722414970E0,-5.293272495E0,1.252693653E0
1.367236872E1,4.598354816E0,-5.834687233E0,8.317646980E-1
1.368236746E1,4.782170296E0,-5.719230652E0,5.882430077E-1
1.369236616E1,5.061299324E0,-5.225023746E0,6.326680183E-1
1.370236492E1,5.092782974E0,-4.930111885E0,9.626369476E-1
1.371236369E1,5.291787148E0,-4.953091621E0,1.119432926E0
1.372236239E1,5.670943260E0,-5.200152397E0,1.262207985E0
1.373236116E1,6.157321930E0,-5.348001003E0,1.518000126E0
1.374235992E1,6.240877151E0,-5.481117249E0,1.714025021E0
1.375235869E1,6.065508842E0,-5.398009300E0,1.549036026E0
1.376235749E1,5.815781593E0,-5.358133316E0,1.145197868E0
1.377235629E1,5.688995361E0,-5.453597069E0,6.965603828E-1
1.378235509E1,5.595285892E0,-5.617728233E0,7.302365303E-1
1.379235385E1,5.359440327E0,-5.786060333E0,9.575080872E-1
1.380235259E1,5.132018089E0,-5.943431854E0,9.891381264E-1
1.381235135E1,5.023821354E0,-6.097455978E0,1.137128830E0
1.382235012E1,4.921019077E0,-6.518198967E0,9.717593193E-1
1.383234882E1,4.836015701E0,-6.871285439E0,3.241209984E-1
1.384234755E1,4.820645332E0,-6.971194267E0,-3.984451294E-2
1.385234632E1,4.944332600E0,-6.777502060E0,1.464481354E-1
1.386234502E1,4.769054413E0,-6.429313660E0,4.417943954E-1
1.387234378E1,4.510316849E0,-6.102136612E0,6.725120544E-1
1.388234255E1,4.228422165E0,-5.843141556E0,6.213335991E-1
1.389234132E1,4.208504677E0,-5.541768551E0,5.622353554E-1
1.390234008E1,4.273938179E0,-5.146471500E0,5.558915138E-1
1.391233885E1,4.386340618E0,-4.821318150E0,1.220726013E0
1.392233761E1,4.149328232E0,-4.400555611E0,1.941947460E0
1.393233638E1,4.192782402E0,-4.158817291E0,2.751032829E0
1.394233505E1,3.998905659E0,-4.007232666E0,2.913924217E0
1.395233381E1,4.171780586E0,-3.791935682E0,2.876287460E0
1.396233258E1,4.413389206E0,-3.469155073E0,2.441926956E0
1.397233128E1,4.503360748E0,-3.473254204E0,2.192199230E0
1.398233004E1,4.826841354E0,-3.260356903E0,2.366271496E0
1.399232878E1,4.757781982E0,-3.130775213E0,2.737071514E0
1.400232751E1,4.737352371E0,-3.044131994E0,2.931204319E0
1.401232624E1,4.757336617E0,-3.045927286E0,3.118486881E0
1.402232498E1,4.859197617E0,-2.983785152E0,3.584658861E0
1.403232371E1,4.948250294E0,-2.704043865E0,4.046195030E0
1.404232244E1,5.121908188E0,-2.466274023E0,4.452978134E0
1.405232111E1,5.267882347E0,-2.019168139E0,4.710411549E0
1.406231984E1,4.948492527E0,-1.496736765E0,4.719265938E0
1.407231857E1,4.255081177E0,-9.738655090E-1,4.230062485E0
1.408231724E1,4.134535789E0,-1.070382833E0,3.633416414E0
1.409231597E1,4.367299557E0,-1.698705673E0,3.325300694E0
1.410231474E1,4.786941051E0,-2.468222141E0,2.994374752E0
1.411231344E1,5.163812160E0,-3.368408442E0,3.026841640E0
1.412231220E1,4.940531731E0,-3.732577324E0,2.816903591E0
1.413231097E1,4.637397289E0,-3.877131462E0,2.426582813E0
1.414230974E1,4.324019909E0,-3.699352741E0,1.775243282E0
1.415230850E1,4.080399513E0,-3.248392105E0,1.579530239E0
1.416230727E1,3.811724663E0,-2.840872765E0,1.785598278E0
1.417230604E1,3.500110149E0,-2.365204811E0,1.501360416E0
1.418230480E1,3.523258209E0,-2.124517918E0,1.313799858E0
1.419230350E1,3.728588581E0,-1.952059269E0,1.498043537E0
1.420230227E1,4.139461040E0,-1.911532402E0,1.701833725E0
1.421230103E1,4.593750477E0,-1.972312927E0,2.064099789E0
1.422229973E1,5.006093502E0,-2.053907871E0,2.500417709E0
1.423229850E1,5.445643425E0,-2.205803394E0,2.931182146E0
1.424229727E1,5.447217464E0,-2.542678356E0,2.946338892E0
1.425229603E1,5.522512913E0,-2.624922752E0,2.640932798E0
1.426229480E1,5.535140514E0,-2.755266190E0,2.098510265E0
1.427229356E1,5.416717529E0,-2.957970142E0,1.385245323E0
1.428229233E1,5.194390774E0,-3.220051289E0,7.074933052E-1
1.429229110E1,4.872885227E0,-3.617196560E0,5.453429222E-1
1.430228983E1,4.441618919E0,-4.279586792E0,4.723892212E-1
1.431228863E1,4.353077888E0,-4.760951519E0,5.686521530E-2
1.432228746E1,4.544404984E0,-5.219143391E0,-3.612036705E-1
1.433228629E1,4.299273014E0,-5.300776958E0,-1.841392517E-1
1.434228519E1,3.943874836E0,-5.530148506E0,-8.976125717E-2
1.435228409E1,3.646015882E0,-5.755349159E0,-4.336729050E-1
1.436228293E1,3.662402391E0,-5.503660202E0,-2.012615204E-1
1.437228183E1,4.280944347E0,-5.270620823E0,1.027922630E-1
1.438228073E1,4.787109375E0,-5.359367847E0,3.954892159E-1
1.439227963E1,5.184875011E0,-6.017788410E0,1.134367943E0
1.440227849E1,5.577565193E0,-6.452071667E0,1.613744497E0
1.441227736E1,5.688417435E0,-6.749289513E0,1.359303236E0
1.442227623E1,5.771476746E0,-6.558154583E0,9.700331688E-1
1.443227509E1,5.755515575E0,-6.390723228E0,8.725194931E-1
1.444227389E1,5.465498924E0,-6.208102703E0,1.243281603E0
1.445227272E1,5.092089653E0,-5.984887123E0,1.200822592E0
1.446227156E1,4.762722969E0,-5.707911968E0,1.109843731E0
1.447227032E1,4.506906509E0,-5.436143398E0,9.042005539E-1
1.448226919E1,4.159998894E0,-5.205222130E0,5.818133354E-1
1.449226802E1,3.950971603E0,-4.960366726E0,6.645450592E-1
1.450226686E1,3.736093044E0,-4.675546169E0,7.382531166E-1
1.451226572E1,3.729413509E0,-4.464340210E0,7.391149998E-1
1.452226459E1,3.759233713E0,-4.399878025E0,9.267294407E-1
1.453226345E1,3.939534187E0,-4.566227913E0,7.904238701E-1
1.454226232E1,4.202839851E0,-4.834084988E0,7.284090519E-1
1.455226112E1,4.430755138E0,-5.007796288E0,4.604129791E-1
1.456225998E1,4.604193687E0,-5.181256771E0,2.984957695E-1
1.457225885E1,4.696922779E0,-5.257103443E0,-1.540517807E-2
1.458225765E1,4.733486652E0,-5.130650043E0,-1.292977333E-1
1.459225652E1,4.548626423E0,-4.811882973E0,-2.045464516E-1
1.460225535E1,4.310905933E0,-4.325373173E0,-3.355789185E-2
1.461225412E1,3.999349356E0,-3.605023861E0,2.640409470E-1
1.462225292E1,3.571488857E0,-3.307154179E0,5.271027088E-1
1.463225165E1,3.160018444E0,-3.304036617E0,7.358155251E-1
1.464225035E1,2.568130970E0,-3.809399128E0,6.307456493E-1
1.465224908E1,2.080945969E0,-4.427371502E0,2.440745831E-1
1.466224782E1,2.253650665E0,-5.349989414E0,-1.216611862E-1
1.467224655E1,3.108109951E0,-5.759579182E0,-5.979394913E-1
1.468224528E1,3.711281776E0,-5.883388519E0,-6.914143562E-1
1.469224395E1,4.044057846E0,-6.014092445E0,-6.847043037E-1
1.470224268E1,4.354149342E0,-5.784618378E0,-5.022735596E-1
1.471224141E1,4.581543922E0,-5.581851959E0,-2.741417885E-1
1.472224011E1,4.811974525E0,-5.413273811E0,-1.485347748E-3
1.473223888E1,5.119200706E0,-5.064328671E0,4.306173325E-1
1.474223765E1,5.130215645E0,-4.694143772E0,7.853620052E-1
1.475223645E1,5.210139275E0,-4.328948021E0,9.520559311E-1
1.476223525E1,5.270308018E0,-4.006917000E0,1.014449358E0
1.477223405E1,5.389719963E0,-3.870734215E0,1.044710636E0
1.478223281E1,5.318810463E0,-3.905409813E0,1.182560921E0
1.479223161E1,5.195709229E0,-4.030507565E0,1.114984989E0
1.480223034E1,5.056437492E0,-4.156594753E0,1.137924671E0
1.481222911E1,4.996605873E0,-4.304812908E0,1.158946514E0
1.482222788E1,5.041178703E0,-4.432104588E0,1.082565784E0
1.483222658E1,5.237941742E0,-4.719736576E0,5.346283913E-1
1.484222534E1,5.339094639E0,-4.825130463E0,3.313541412E-1
1.485222411E1,5.310002804E0,-4.778514862E0,4.229507446E-1
1.486222281E1,5.062377453E0,-4.689042568E0,8.020763397E-1
1.487222157E1,4.917468071E0,-4.494481564E0,1.163349628E0
1.488222034E1,4.888967991E0,-4.358571053E0,1.560362339E0
1.489221911E1,4.875869751E0,-4.430124283E0,1.795897961E0
1.490221787E1,4.805669785E0,-4.434755325E0,1.617835522E0
1.491221664E1,4.781721115E0,-4.501640797E0,1.755970955E0
1.492221540E1,4.986148834E0,-4.484735012E0,1.494246483E0
1.493221417E1,5.028129101E0,-4.357605457E0,1.037473679E0
1.494221290E1,4.872236252E0,-4.311555862E0,8.998212814E-1
1.495221167E1,4.577583790E0,-4.545319080E0,1.154861927E0
1.496221044E1,4.436844826E0,-4.845033169E0,1.436314106E0
1.497220914E1,4.379322529E0,-5.214311600E0,1.246271610E0
1.498220794E1,4.327969551E0,-5.688607693E0,8.930044174E-1
1.499220667E1,4.594569206E0,-5.927773952E0,3.350229263E-1
1.500220543E1,4.880887508E0,-5.641822338E0,1.526184082E-1
1.501220420E1,4.876153469E0,-5.441271782E0,7.874746323E-1
1.502220293E1,4.725398064E0,-5.106591225E0,1.325611115E0
1.503220167E1,4.342921734E0,-4.926904678E0,1.610577106E0
1.504220040E1,4.102406979E0,-4.829608917E0,1.437056065E0
1.505219907E1,4.195002556E0,-4.727799416E0,1.089699745E0
1.506219780E1,4.257849216E0,-4.612762928E0,8.765058517E-1
1.507219656E1,4.727063656E0,-4.638473034E0,1.378135204E0
1.508219526E1,4.624148846E0,-4.815866947E0,1.900107861E0
1.509219400E1,4.500091076E0,-4.884824276E0,2.256927967E0
1.510219273E1,3.928101301E0,-4.892441273E0,2.679350853E0
1.511219140E1,3.497083187E0,-4.526000023E0,2.339107037E0
1.512219013E1,3.451109886E0,-4.030467510E0,1.547441483E0
1.513218890E1,3.459381104E0,-3.445436954E0,1.373186111E0
1.514218766E1,3.330740452E0,-2.931924343E0,1.873130798E0
1.515218643E1,3.138684750E0,-2.542500019E0,2.371789932E0
1.516218519E1,3.085114479E0,-2.447044373E0,2.990725517E0
1.517218396E1,3.414263487E0,-2.577661991E0,3.172484875E0
1.518218272E1,3.868011236E0,-2.586534500E0,3.516868830E0
1.519218143E1,4.097706795E0,-2.505211830E0,3.822345257E0
1.520218019E1,4.305729389E0,-2.094387531E0,4.475904942E0
1.521217896E1,4.438090324E0,-1.637525082E0,4.999027252E0
1.522217766E1,4.147902012E0,-1.088979721E0,5.232433319E0
1.523217642E1,3.724187136E0,-5.124888420E-1,4.995473862E0
1.524217519E1,3.351936340E0,-5.201721191E-2,4.381108284E0
1.525217396E1,3.267346382E0,6.548881531E-2,3.608560085E0
1.526217272E1,3.569142342E0,-2.779021263E-1,3.092483997E0
1.527217149E1,3.803756714E0,-7.766389847E-1,3.095397472E0
1.528217022E1,4.018627644E0,-1.323934078E0,3.145070553E0
1.529216902E1,3.996335030E0,-1.610808849E0,3.227129936E0
1.530216772E1,4.106212616E0,-1.761956215E0,3.171113491E0
1.531216649E1,4.050650597E0,-1.699720860E0,3.183389664E0
1.532216525E1,3.771920681E0,-1.672300339E0,2.939124584E0
1.533216395E1,3.703695774E0,-1.621877670E0,2.558892250E0
1.534216272E1,3.638126850E0,-1.714332581E0,2.357164860E0
1.535216152E1,3.593354702E0,-2.013687611E0,2.241531372E0
1.536216032E1,3.681360960E0,-2.384674072E0,2.216621876E0
1.537215918E1,3.956995487E0,-2.665037155E0,2.229177952E0
1.538215812E1,4.160231113E0,-2.962751389E0,2.188387871E0
1.539215708E1,4.311586380E0,-3.288593292E0,1.903397083E0
1.540215608E1,4.450956345E0,-3.536239624E0,1.646636963E0
1.541215512E1,4.524173737E0,-3.984121323E0,1.379859447E0
1.542215415E1,4.707067490E0,-4.033387661E0,1.293768883E0
1.543215318E1,4.790199757E0,-3.993855000E0,1.295032501E0
1.544215225E1,4.751608849E0,-3.763103485E0,1.219095707E0
1.545215135E1,4.325462341E0,-3.746475220E0,9.489588737E-1
1.546215041E1,3.911603451E0,-3.687164783E0,6.446175575E-1
1.547214941E1,3.699007034E0,-3.650394440E0,3.475508690E-1
1.548214851E1,3.775584698E0,-3.562731743E0,2.391171455E-1
1.549214758E1,3.851512909E0,-3.576307297E0,9.108400345E-2
1.550214665E1,4.000648499E0,-3.752009392E0,1.324615479E-1
1.551214575E1,4.310873985E0,-3.845300674E0,5.334663391E-1
1.552214481E1,4.632667542E0,-4.235795021E0,5.926623344E-1
1.553214391E1,4.866170883E0,-4.866168022E0,6.472277641E-1
1.554214301E1,5.171562672E0,-5.511590481E0,9.321727753E-1
1.555214201E1,5.358383656E0,-5.833801746E0,1.151287079E0
1.556214111E1,5.057498932E0,-6.300548077E0,1.211009026E0
1.557214021E1,4.641791344E0,-6.172471046E0,1.218148232E0
1.558213924E1,4.375053883E0,-6.064755917E0,1.169773579E0
1.559213834E1,4.084889412E0,-5.795676231E0,1.159211159E0
1.560213744E1,3.968865871E0,-5.460348606E0,1.188897133E0
1.561213654E1,3.988745451E0,-5.030192852E0,1.210886002E0
1.562213564E1,4.004023552E0,-4.606570244E0,1.264143705E0
1.563213474E1,3.814332962E0,-4.402447701E0,1.141260624E0
1.564213381E1,3.718057394E0,-4.345994949E0,1.091882706E0
1.565213288E1,3.675282717E0,-4.218414783E0,1.127481461E0
1.566213188E1,3.785862923E0,-4.184178829E0,1.170533419E0
1.567213084E1,3.973472357E0,-4.231630325E0,1.178961039E0
1.568212974E1,4.033278942E0,-4.231298923E0,1.146275043E0
1.569212858E1,4.004232407E0,-4.253376961E0,8.873014450E-1
1.570212744E1,3.947810650E0,-4.423690796E0,4.025063515E-1
1.571212628E1,3.901384592E0,-4.665604591E0,5.010128021E-2
1.572212504E1,4.009224415E0,-4.529686451E0,-1.148772240E-1
1.573212384E1,4.136866093E0,-4.480261803E0,-4.193878174E-2
1.574212254E1,4.252976418E0,-4.354478359E0,2.977504730E-1
1.575212127E1,4.302880287E0,-4.261106014E0,6.477732658E-1
1.576212004E1,4.071375847E0,-4.101387978E0,7.386531830E-1
1.577211881E1,3.781490803E0,-3.914960861E0,5.939931870E-1
1.578211754E1,3.412302256E0,-3.756609917E0,2.663078308E-1
1.579211634E1,3.152696609E0,-3.574686050E0,-1.292061806E-1
1.580211507E1,3.154138088E0,-3.397579193E0,-3.802571297E-1
1.581211384E1,3.328421116E0,-3.339051247E0,-4.025506973E-1
1.582211264E1,3.979477406E0,-3.679738045E0,-6.683983803E-1
1.583211134E1,4.525394440E0,-4.536107063E0,-3.897633553E-1
1.584211010E1,4.974839687E0,-4.741684437E0,-1.737208366E-1
1.585210890E1,4.905717850E0,-4.447052956E0,-1.484551430E-1
1.586210767E1,4.805120468E0,-4.088198185E0,-1.585049629E-1
1.587210644E1,4.601299286E0,-3.679986477E0,4.807472229E-3
1.588210520E1,4.536261559E0,-3.517726898E0,4.113121033E-1
1.589210397E1,4.529569149E0,-3.548512459E0,5.966472626E-1
1.590210273E1,4.611505508E0,-3.660431385E0,8.768868446E-1
1.591210143E1,4.597490311E0,-3.711779594E0,1.280803442E0
1.592210020E1,4.524926186E0,-3.718454838E0,1.492798328E0
1.593209897E1,4.266135693E0,-3.737378120E0,1.508887529E0
1.594209770E1,3.982023954E0,-3.836476803E0,1.290558577E0
1.595209646E1,3.669411898E0,-3.976799488E0,8.046026230E-1
1.596209523E1,3.463890076E0,-4.151921749E0,3.680925369E-1
1.597209393E1,3.547057867E0,-4.317991734E0,3.246269226E-1
1.598209270E1,3.622816324E0,-4.312722683E0,4.270873070E-1
1.599209146E1,3.789592981E0,-4.225115776E0,5.125956535E-1
1.600209023E1,4.013322830E0,-4.119055271E0,7.080421448E-1
1.601208900E1,4.281585693E0,-4.046920300E0,1.226193428E0
1.602208776E1,4.478371620E0,-3.857140064E0,1.565081120E0
1.603208653E1,4.620303154E0,-3.653737068E0,1.764446259E0
1.604208529E1,4.717326641E0,-3.503683090E0,2.065437078E0
1.605208399E1,4.620430946E0,-3.467818737E0,2.132612705E0
1.606208276E1,4.511789799E0,-3.458070755E0,2.141317129E0
1.607208152E1,4.511813164E0,-3.481249809E0,1.805478096E0
1.608208023E1,4.401478767E0,-3.590844154E0,1.440556526E0
1.609207896E1,4.384939671E0,-3.660714149E0,1.120635033E0
1.610207769E1,4.195194721E0,-3.769236565E0,1.116898060E0
1.611207642E1,4.160511971E0,-3.919725418E0,1.020380974E0
1.612207516E1,4.110249519E0,-4.155648232E0,1.040271759E0
1.613207389E1,3.907963276E0,-4.387489796E0,1.012687206E0
1.614207262E1,3.812853098E0,-4.610775948E0,9.087033272E-1
1.615207136E1,3.859937191E0,-4.613772869E0,5.314650536E-1
1.616207002E1,3.887784004E0,-4.737023830E0,4.113354683E-1
1.617206876E1,4.040838718E0,-4.854522705E0,3.681645393E-1
1.618206749E1,4.093787670E0,-4.653115273E0,2.797260284E-1
1.619206619E1,3.753890514E0,-4.305369377E0,3.212246895E-1
1.620206495E1,3.495832443E0,-3.838416100E0,2.796654701E-1
1.621206372E1,3.348111629E0,-3.469000340E0,4.318213463E-1
1.622206242E1,3.296688557E0,-3.266119003E0,8.569712639E-1
1.623206119E1,3.012045383E0,-3.190355301E0,1.564248562E0
1.624205995E1,2.939622879E0,-3.166553974E0,2.062220573E0
1.625205872E1,3.088129759E0,-3.315919876E0,2.397316933E0
1.626205748E1,3.558419704E0,-3.221801758E0,2.416736603E0
1.627205625E1,4.009248734E0,-3.014672756E0,2.465824127E0
1.628205502E1,4.256763935E0,-2.650901318E0,2.609037876E0
1.629205378E1,4.054705620E0,-2.249828339E0,2.718325615E0
1.630205248E1,3.619503498E0,-2.048750877E0,2.923198223E0
1.631205125E1,3.056718826E0,-1.741169930E0,2.901127815E0
1.632205001E1,2.985094309E0,-1.433413982E0,3.030210018E0
1.633204871E1,2.969209433E0,-1.333570004E0,3.412676334E0
1.634204748E1,3.109293938E0,-1.117312431E0,3.575378418E0
1.635204625E1,3.444676399E0,-1.314537525E0,3.997665882E0
1.636204501E1,3.902329445E0,-1.385720730E0,4.547324657E0
1.637204378E1,4.143883228E0,-1.352774143E0,4.669324398E0
1.638204254E1,4.076352119E0,-1.084139824E0,4.125441551E0
1.639204131E1,4.003966808E0,-5.268740654E-1,3.794102192E0
1.640204008E1,3.761100531E0,-5.176353455E-1,3.358930588E0
1.641203881E1,3.620808601E0,-1.006680012E0,3.043141842E0
1.642203758E1,3.491724014E0,-1.518959045E0,2.932005882E0
1.643203634E1,3.117126465E0,-1.851632118E0,2.761516094E0
1.644203507E1,2.973657370E0,-2.025325775E0,2.681463718E0
1.645203387E1,2.959554195E0,-1.937039375E0,2.673518181E0
1.646203274E1,2.873291969E0,-1.646394253E0,2.635525227E0
1.647203161E1,2.673725605E0,-1.410896301E0,2.650999069E0
1.648203054E1,2.555900812E0,-1.258974552E0,2.542364120E0
1.649202947E1,2.608843803E0,-1.180524349E0,2.493580818E0
1.650202840E1,2.892368555E0,-1.164765835E0,2.475275517E0
1.651202740E1,3.319638729E0,-1.209401608E0,2.408432484E0
1.652202644E1,3.748073578E0,-1.345562458E0,2.278173923E0
1.653202550E1,4.131392002E0,-1.577800274E0,2.153935909E0
1.654202457E1,4.339145660E0,-1.657920837E0,1.974609375E0
1.655202357E1,4.391700268E0,-1.931225777E0,1.892221451E0
1.656202264E1,4.360282421E0,-2.209938526E0,1.699929237E0
1.657202170E1,4.378000736E0,-2.516758442E0,1.449944973E0
1.658202070E1,4.409986973E0,-2.891491890E0,1.301085472E0
1.659201980E1,4.342962742E0,-3.009406567E0,1.106473923E0
1.660201887E1,4.197262764E0,-3.181510925E0,6.871705055E-1
1.661201793E1,3.998047829E0,-3.336724281E0,1.930923462E-1
1.662201700E1,3.997965813E0,-3.524875641E0,-1.041908264E-1
1.663201607E1,3.800903082E0,-3.591845512E0,-4.844169617E-1
1.664201510E1,3.538246632E0,-3.627332687E0,-3.630266190E-1
1.665201416E1,3.381500483E0,-3.704177380E0,6.239891052E-3
1.666201316E1,3.239544868E0,-3.745221615E0,3.888020515E-1
1.667201223E1,3.023201466E0,-4.031911850E0,4.056191444E-1
1.668201130E1,3.000781298E0,-4.331073761E0,7.114973068E-1
1.669201030E1,3.213561058E0,-4.949362755E0,1.154903412E0
1.670200936E1,3.408267975E0,-5.161647797E0,2.067709446E0
1.671200840E1,3.718395948E0,-5.350638866E0,1.951138735E0
1.672200740E1,3.686328650E0,-5.264971256E0,1.648595095E0
1.673200646E1,3.683426380E0,-5.054257393E0,1.577382326E0
1.674200550E1,3.793605089E0,-4.830775261E0,1.356477261E0
1.675200453E1,3.823017120E0,-4.602676868E0,9.534053802E-1
1.676200349E1,3.925415516E0,-4.389130592E0,8.036141396E-1
1.677200239E1,3.707578897E0,-4.421077251E0,9.495472908E-1
1.678200129E1,3.613114834E0,-4.247174740E0,1.131773949E0
1.679200016E1,3.451710939E0,-4.176957130E0,1.299580812E0
1.680199896E1,3.347452879E0,-4.023771763E0,1.534487247E0
1.681199776E1,3.366721630E0,-3.784015179E0,1.581560612E0
1.682199653E1,3.369309902E0,-3.441719055E0,1.788037300E0
1.683199519E1,3.444383144E0,-3.379402637E0,1.772784710E0
1.684199392E1,3.393754005E0,-3.439915180E0,1.848323107E0
1.685199266E1,3.348360062E0,-3.547328472E0,1.657545567E0
1.686199139E1,3.425018311E0,-3.759883404E0,1.448951244E0
1.687199012E1,3.454790592E0,-3.892883301E0,1.223698139E0
1.688198886E1,3.739386559E0,-3.865895748E0,7.352845669E-1
1.689198756E1,3.794597864E0,-3.836772919E0,5.547704697E-1
1.690198632E1,3.898717403E0,-3.803873062E0,2.801256180E-1
1.691198502E1,3.724662542E0,-3.782972336E0,-4.883670807E-2
1.692198379E1,3.372740507E0,-3.773171425E0,-1.860032082E-1
1.693198256E1,3.124444962E0,-3.791360855E0,-2.923717499E-1
1.694198129E1,2.872142792E0,-3.739680290E0,-3.708438873E-1
1.695198005E1,2.756774426E0,-3.802504063E0,-3.385868073E-1
1.696197882E1,2.775827408E0,-3.925820827E0,-4.828939438E-1
1.697197755E1,3.243219614E0,-4.529726982E0,-4.381046295E-1
1.698197632E1,3.539961338E0,-4.477079868E0,-1.873688698E-1
1.699197508E1,3.863758802E0,-4.027584076E0,-2.845516205E-1
1.700197385E1,4.057366371E0,-3.722222328E0,-1.623921394E-1
1.701197262E1,4.152603149E0,-3.612560749E0,1.011791229E-1
1.702197138E1,4.202818871E0,-3.451992035E0,4.607186317E-1
1.703197015E1,4.241038322E0,-3.204278469E0,1.259818316E0
1.704196892E1,4.281283855E0,-3.012327194E0,1.676393986E0
1.705196765E1,4.214967728E0,-2.950535774E0,1.859798908E0
1.706196641E1,4.046711922E0,-3.004799843E0,1.957424641E0
1.707196518E1,3.768261909E0,-2.989431858E0,1.856343031E0
1.708196388E1,3.630712986E0,-3.020464897E0,1.651865244E0
1.709196265E1,3.448449612E0,-3.084827423E0,1.344682217E0
1.710196141E1,3.333075285E0,-3.202508450E0,1.035106182E0
1.711196018E1,3.271460295E0,-3.329819202E0,7.934260368E-1
1.712195894E1,3.343973398E0,-3.361076355E0,7.013335228E-1
1.713195771E1,3.481209993E0,-3.368255615E0,6.392931938E-1
1.714195648E1,3.762282372E0,-3.367714882E0,5.229792595E-1
1.715195524E1,4.103613377E0,-3.335127354E0,5.480208397E-1
1.716195394E1,4.626003265E0,-3.351465225E0,8.303966522E-1
1.717195271E1,4.765845299E0,-3.354690075E0,1.208773613E0
1.718195147E1,4.981550217E0,-3.480819702E0,1.432565689E0
1.719195017E1,4.914811134E0,-3.644748211E0,1.542803288E0
1.720194891E1,4.714214802E0,-3.871155739E0,1.601583958E0
1.721194764E1,4.464225769E0,-4.049757004E0,1.574526310E0
1.722194631E1,4.299489975E0,-4.312038898E0,1.626162052E0
1.723194504E1,4.194201469E0,-4.540814877E0,1.538322926E0
1.724194377E1,4.105389118E0,-4.534772396E0,1.336929798E0
1.725194251E1,3.802557468E0,-4.513238907E0,1.047728062E0
1.726194124E1,3.526195288E0,-4.631208420E0,7.666125298E-1
1.727193994E1,3.304722786E0,-4.646761894E0,8.216443062E-1
1.728193867E1,3.052603960E0,-4.708849907E0,8.103184700E-1
1.729193740E1,2.918868303E0,-4.712170124E0,5.575771332E-1
1.730193607E1,2.914812088E0,-4.625087261E0,4.708046913E-1
1.731193480E1,3.151271343E0,-4.444829464E0,2.138433456E-1
1.732193357E1,3.398992538E0,-4.258942127E0,5.395083427E-1
1.733193227E1,3.528838634E0,-4.097771168E0,9.145736694E-1
1.734193104E1,3.433821678E0,-3.829340935E0,1.388085842E0
1.735192977E1,3.220323801E0,-3.424932957E0,1.412580013E0
1.736192853E1,3.042357922E0,-3.086473942E0,1.461732864E0
1.737192730E1,3.049733639E0,-2.819780827E0,1.463789463E0
1.738192607E1,3.302719593E0,-2.741645813E0,1.732496738E0
1.739192483E1,3.630805492E0,-2.908049107E0,2.056529045E0
1.740192360E1,3.638735056E0,-3.088163376E0,2.010359764E0
1.741192230E1,3.385589123E0,-3.158401489E0,1.849463463E0
1.742192106E1,3.134296417E0,-3.132061005E0,1.678123474E0
1.743191983E1,2.877586842E0,-2.854925632E0,1.705603123E0
1.744191853E1,2.598213673E0,-2.393458366E0,1.916748524E0
1.745191730E1,2.498350382E0,-2.072050571E0,2.544959545E0
1.746191603E1,2.518009663E0,-1.894856930E0,2.968561172E0
1.747191470E1,2.532570839E0,-1.930811405E0,3.373348236E0
1.748191343E1,2.745852470E0,-1.901887417E0,3.302799225E0
1.749191223E1,2.898530483E0,-1.906082630E0,3.355765820E0
1.750191096E1,2.879443884E0,-1.837968826E0,3.786385298E0
1.751190973E1,2.933950424E0,-1.632186413E0,4.297488213E0
1.752190846E1,3.094236612E0,-1.288422108E0,4.541119576E0
1.753190723E1,3.106577396E0,-8.748044968E-1,4.522621155E0
1.754190599E1,3.184834719E0,-1.501626968E-1,4.173810959E0
1.755190476E1,3.299250603E0,1.136856079E-1,4.081649780E0
1.756190359E1,3.188456774E0,-1.388478279E-1,4.095737457E0
1.757190249E1,3.134642124E0,-4.676804543E-1,3.781628132E0
1.758190132E1,3.207690239E0,-7.529711723E-1,3.600212336E0
1.759190022E1,3.240993977E0,-9.250922203E-1,3.426827908E0
1.760189912E1,3.143056870E0,-9.305505753E-1,3.221045017E0
1.761189802E1,3.069799662E0,-7.405972481E-1,2.902997971E0
1.762189689E1,2.934467316E0,-6.008863449E-1,2.708217621E0
1.763189576E1,2.725842237E0,-7.732186317E-1,2.764021873E0
1.764189462E1,2.617943048E0,-8.592815399E-1,2.779366016E0
1.765189349E1,2.493353367E0,-9.984340668E-1,2.737504959E0
1.766189229E1,2.655751228E0,-1.138526917E0,2.616883755E0
1.767189115E1,2.778301716E0,-1.341457367E0,2.604012012E0
1.768189002E1,2.896511316E0,-1.515328884E0,2.598544598E0
1.769188882E1,2.834008694E0,-1.750246048E0,2.418352604E0
1.770188769E1,2.592360020E0,-1.931376457E0,2.173122883E0
1.771188655E1,2.384613276E0,-2.075955391E0,1.948375702E0
1.772188535E1,2.394511700E0,-2.320528507E0,1.770441055E0
1.773188422E1,2.591595173E0,-2.452083111E0,1.502513409E0
1.774188308E1,2.770697594E0,-2.681030750E0,9.828119278E-1
1.775188195E1,3.109499931E0,-2.940638065E0,4.439592361E-1
1.776188085E1,3.477632999E0,-3.105816364E0,3.082084656E-2
1.777187975E1,3.789627552E0,-3.150293350E0,-3.098669052E-1
1.778187865E1,3.941214800E0,-3.302551746E0,-4.078783989E-1
1.779187748E1,3.870879889E0,-3.342197418E0,-5.922436714E-1
1.780187632E1,3.787548065E0,-3.615324974E0,-6.274924278E-1
1.781187518E1,3.853180885E0,-3.971693516E0,-6.286754608E-1
1.782187408E1,3.887167454E0,-4.327821732E0,-2.758755684E-1
1.783187288E1,3.775746822E0,-4.676510334E0,3.441953659E-2
1.784187175E1,3.638774633E0,-5.135315895E0,4.937076569E-1
1.785187055E1,3.289864779E0,-5.538333416E0,8.942127228E-1
1.786186935E1,3.094477415E0,-5.739132404E0,1.164358616E0
1.787186808E1,3.143987656E0,-5.475886345E0,1.233821392E0
1.788186681E1,3.176033735E0,-4.845911026E0,1.378489971E0
1.789186555E1,3.242377996E0,-4.254265785E0,1.475073099E0
1.790186428E1,3.215482235E0,-3.692362309E0,1.590048313E0
1.791186295E1,3.287036896E0,-3.247148514E0,1.793453693E0
1.792186168E1,3.210762024E0,-3.020780563E0,1.768327236E0
1.793186041E1,3.218542337E0,-3.001974106E0,1.714294434E0
1.794185911E1,3.345923662E0,-3.069531441E0,1.431429386E0
1.795185788E1,3.443724871E0,-3.180861950E0,1.445181847E0
1.796185664E1,3.396608591E0,-3.372875214E0,1.579579592E0
1.797185534E1,3.269874096E0,-3.411725521E0,1.706196785E0
1.798185411E1,3.157040834E0,-3.403011322E0,1.603392124E0
1.799185288E1,3.123882055E0,-3.623784065E0,1.331321239E0
1.800185164E1,3.247994900E0,-3.758559227E0,9.517152309E-1
1.801185041E1,3.540725231E0,-3.895405769E0,6.805081367E-1
1.802184917E1,3.817134857E0,-3.749672890E0,5.641384125E-1
1.803184794E1,4.188913822E0,-3.328270435E0,5.213718414E-1
1.804184671E1,4.410195351E0,-2.886160851E0,4.826335907E-1
1.805184541E1,4.329176903E0,-2.537433147E0,3.688340187E-1
1.806184417E1,3.899027586E0,-2.290544033E0,1.941652298E-1
1.807184294E1,3.578550577E0,-2.149616241E0,5.947399139E-2
1.808184164E1,3.234658718E0,-2.121893406E0,2.055501938E-2
1.809184040E1,2.825383186E0,-2.161146164E0,1.545877457E-1
1.810183917E1,2.175068378E0,-2.525184155E0,1.133713722E-1
1.811183794E1,1.458568096E0,-3.050801277E0,-1.241183281E-1
1.812183670E1,1.419716835E0,-4.077865601E0,-2.527847290E-1
1.813183547E1,1.979969501E0,-4.533367634E0,-5.243530273E-1
1.814183423E1,2.398205757E0,-4.418187618E0,-3.885707855E-1
1.815183300E1,2.636368275E0,-4.253020763E0,-2.184915543E-2
1.816183170E1,2.729274035E0,-4.105896473E0,2.009859085E-1
1.817183047E1,3.070611715E0,-3.799300194E0,3.730502129E-1
1.818182923E1,3.257235050E0,-3.683908463E0,4.923214912E-1
1.819182793E1,3.461315393E0,-3.571689129E0,9.321179390E-1
1.820182670E1,3.569537401E0,-3.414189816E0,9.854311943E-1
1.821182546E1,3.667744160E0,-3.042135715E0,1.186686516E0
1.822182416E1,3.745922565E0,-2.626114368E0,1.302120686E0
1.823182293E1,3.634452581E0,-2.397529125E0,1.284949303E0
1.824182166E1,3.553834677E0,-2.237605572E0,1.478211403E0
1.825182040E1,3.529820681E0,-2.213609219E0,1.597912073E0
1.826181913E1,3.716874123E0,-2.334196568E0,1.903269291E0
1.827181786E1,3.752100229E0,-2.474617004E0,1.825822592E0
1.828178825E1,3.924583912E0,-2.444351196E0,1.472673178E0
1.829178698E1,4.026843548E0,-2.264122963E0,1.299642086E0
1.830178565E1,4.170978069E0,-2.133866787E0,1.140658379E0
1.831178438E1,4.167972565E0,-2.069176197E0,1.159703732E0
1.832178312E1,4.087694645E0,-2.231244564E0,1.253940582E0
1.833178178E1,3.998358727E0,-2.544462681E0,1.329508781E0
1.834178051E1,3.970891953E0,-2.977195740E0,1.338393688E0
1.835177928E1,3.923424721E0,-3.509775162E0,1.182130814E0
1.836177805E1,3.775694847E0,-3.978760242E0,9.140148163E-1
1.837177681E1,3.447555065E0,-4.269081593E0,1.057640553E0
1.838177558E1,3.422706604E0,-4.187740326E0,1.152367115E0
1.839177434E1,3.434588909E0,-4.042379856E0,1.758596897E0
1.840177311E1,3.434409618E0,-3.882779121E0,1.983486652E0
1.841177181E1,3.378573418E0,-3.940855503E0,1.859653473E0
1.842177058E1,3.338869095E0,-4.013384342E0,1.507575512E0
1.843176934E1,3.238691807E0,-4.215098858E0,7.025718689E-1
1.844176804E1,3.117493629E0,-4.440532684E0,3.381061554E-2
1.845176681E1,3.182372570E0,-4.421339989E0,-3.727660179E-1
1.846176554E1,3.203667164E0,-4.343312740E0,-2.676725388E-1
1.847176421E1,3.449159145E0,-4.146582603E0,-1.726512909E-1
1.848176301E1,3.535357237E0,-3.770462036E0,8.932065964E-2
1.849176174E1,3.627926111E0,-3.343659401E0,8.140501976E-1
1.850176047E1,3.453609705E0,-2.968846321E0,1.476720333E0
1.851175924E1,3.139883041E0,-2.796840191E0,1.785219669E0
1.852175797E1,2.852094173E0,-2.593188763E0,2.061277866E0
1.853175674E1,2.506474018E0,-2.375620365E0,2.166410446E0
1.854175550E1,2.484518051E0,-2.363550663E0,2.185501099E0
1.855175420E1,2.444395304E0,-2.330987453E0,2.308860779E0
1.856175297E1,2.386362553E0,-2.295573711E0,2.296387672E0
1.857175174E1,2.325584888E0,-2.167857647E0,2.291622162E0
1.858175047E1,2.208408833E0,-1.942647457E0,2.433652401E0
1.859174927E1,2.067288399E0,-1.682459354E0,2.601684093E0
1.860174817E1,2.053272724E0,-1.308465481E0,2.715841770E0
1.861174707E1,2.120419502E0,-1.051211834E0,2.886865139E0
1.862174604E1,2.220606089E0,-8.981366158E-1,3.159840107E0
1.863174504E1,2.173699617E0,-8.167843819E-1,3.593369961E0
1.864174404E1,2.393627167E0,-7.314457893E-1,3.887647867E0
1.865174300E1,2.793861389E0,-5.538444519E-1,4.447207928E0
1.866174200E1,2.947233200E0,-3.465447426E-1,5.237502575E0
1.867174107E1,2.947690487E0,-1.320347786E-1,5.228850842E0
1.868174013E1,2.756265640E0,4.514837265E-2,4.265799522E0
1.869173913E1,2.424493074E0,4.459381104E-1,3.724647284E0
1.870173820E1,2.239731550E0,4.527301788E-1,3.297125340E0
1.871173726E1,2.250058889E0,2.166910172E-1,2.941173077E0
1.872173626E1,2.400189400E0,-2.151560783E-1,2.792544365E0
1.873173533E1,2.395371437E0,-6.619262695E-1,2.969095230E0
1.874173440E1,2.378006220E0,-1.026074886E0,3.018756866E0
1.875173346E1,2.280011892E0,-1.166206837E0,2.921978951E0
1.876173256E1,2.175794840E0,-1.239417076E0,2.830174446E0
1.877173166E1,2.109854460E0,-1.195558548E0,2.514578819E0
1.878173070E1,2.130930185E0,-1.128236771E0,2.336294651E0
1.879172980E1,2.104592085E0,-9.657554626E-1,1.903646946E0
1.880172883E1,2.111225605E0,-1.132805824E0,1.859258652E0
1.881172790E1,2.251915216E0,-1.170140743E0,1.825794220E0
1.882172700E1,2.428927898E0,-1.085659027E0,1.962388039E0
1.883172600E1,2.684798956E0,-9.825415611E-1,2.064497471E0
1.884172506E1,2.917012453E0,-9.737057686E-1,2.082939148E0
1.885172413E1,3.222592115E0,-9.918036461E-1,2.132779598E0
1.886172319E1,3.453867674E0,-1.030537605E0,2.204866409E0
1.887172226E1,3.704591990E0,-1.057766438E0,2.419690371E0
1.888172129E1,3.702707052E0,-1.021789551E0,2.488139629E0
1.889172032E1,3.772021294E0,-9.289941788E-1,2.496468544E0
1.890171926E1,3.633939981E0,-1.004183769E0,2.144834280E0
1.891171812E1,3.589128494E0,-1.229280949E0,1.886201382E0
1.892171699E1,3.520334482E0,-1.471695423E0,1.677488804E0
1.893171582E1,3.234053850E0,-1.827069759E0,1.556502819E0
1.894171459E1,2.729420662E0,-2.357811451E0,9.768385887E-1
1.895171342E1,2.493798256E0,-2.962932587E0,2.297687531E-1
1.896171216E1,2.087316275E0,-3.375729084E0,-1.575202942E-1
1.897171082E1,1.490941048E0,-4.232462406E0,-4.134831429E-1
1.898170955E1,1.606467009E0,-4.587746620E0,-6.280384064E-1
1.899170829E1,1.731647253E0,-5.276987076E0,-7.847838402E-1
1.900170702E1,2.012936354E0,-6.048860073E0,-8.794813156E-1
1.901170575E1,2.122215271E0,-6.375475407E0,-7.987246513E-1
1.902170449E1,2.441830635E0,-6.281194210E0,-3.900794983E-1
1.903170322E1,2.748266220E0,-6.136821270E0,4.758167267E-2
1.904170195E1,2.966007471E0,-5.805205345E0,4.281101227E-1
1.905170065E1,2.945897341E0,-5.439300060E0,1.108356476E0
1.906169938E1,2.957878113E0,-5.042467594E0,1.359707355E0
1.907169815E1,2.923937798E0,-4.684028149E0,1.436871290E0
1.908169685E1,3.075159311E0,-4.106221199E0,1.123759985E0
1.909169562E1,2.989016533E0,-3.580738544E0,1.039979219E0
1.910169438E1,2.963721752E0,-3.111375809E0,1.367217541E0
1.911169315E1,2.966765165E0,-2.670171261E0,1.887734890E0
1.912169192E1,3.115205526E0,-2.093822002E0,2.008520603E0
1.913169068E1,3.376594067E0,-1.758090496E0,2.011507034E0
1.914168945E1,3.701353312E0,-1.624215603E0,1.979849100E0
1.915168821E1,4.170498848E0,-1.878671646E0,1.526913643E0
1.916168691E1,4.631071568E0,-2.155005455E0,1.176787138E0
1.917168568E1,4.812077045E0,-2.331121445E0,9.943373203E-1
1.918168445E1,4.679830074E0,-2.554689407E0,7.502236366E-1
1.919168315E1,4.340650558E0,-2.758645535E0,4.109754562E-1
1.920168191E1,3.865898848E0,-3.014955044E0,-1.398439407E-1
1.921168068E1,3.204729319E0,-3.162130356E0,-4.993214607E-1
1.922167938E1,2.121572495E0,-3.144943714E0,-8.745908737E-1
1.923167814E1,1.488211632E0,-2.971821308E0,-9.462189674E-1
1.924167691E1,1.107793331E0,-2.864652634E0,-9.566020966E-1
1.925167568E1,1.328749180E0,-2.734951496E0,-8.107743263E-1
1.926167444E1,2.205050468E0,-3.201005459E0,-5.111155510E-1
1.927167321E1,2.733021259E0,-3.387322426E0,8.085632324E-2
1.928167197E1,2.848246336E0,-3.438942432E0,3.357996941E-1
1.929167074E1,2.837329865E0,-3.241794586E0,2.784414291E-1
1.930166944E1,3.043924570E0,-2.899597168E0,2.979598045E-1
1.931166820E1,3.334708214E0,-2.596759319E0,2.636733055E-1
1.932166697E1,3.536400557E0,-2.382672310E0,3.421440125E-1
1.933166567E1,3.610125065E0,-2.113015652E0,6.353583336E-1
1.934166444E1,3.540175200E0,-1.989254951E0,1.233394623E0
1.935166317E1,3.462132454E0,-2.104072571E0,1.949831724E0
1.936166194E1,3.222273111E0,-2.272980690E0,1.853482246E0
1.937166067E1,3.057893038E0,-2.545614243E0,1.959966421E0
1.938165940E1,2.786387444E0,-2.658845425E0,1.734351873E0
1.939165814E1,2.553843975E0,-2.460064411E0,1.397813559E0
1.940165687E1,2.317986012E0,-2.234518051E0,1.139044285E0
1.941165553E1,2.371185780E0,-2.000436306E0,9.120364189E-1
1.942165427E1,2.550253391E0,-1.885531425E0,5.768623352E-1
1.943165300E1,2.801770449E0,-1.950401783E0,4.177713394E-1
1.944165167E1,3.192270756E0,-1.992789268E0,4.366235733E-1
1.945165040E1,3.496841669E0,-2.076979160E0,7.003650665E-1
1.946164910E1,3.805664539E0,-2.233761311E0,8.956327438E-1
1.947164776E1,3.972197056E0,-2.532071114E0,1.024430275E0
1.948164650E1,3.987821341E0,-2.833808899E0,1.243989944E0
1.949164523E1,3.921808243E0,-3.351134300E0,1.524497271E0
1.950164396E1,3.661837816E0,-3.849655151E0,1.688409328E0
1.951164273E1,3.213531494E0,-4.187675953E0,1.554478645E0
1.952164150E1,2.841901779E0,-4.317521095E0,1.308413029E0
1.953164026E1,2.694966555E0,-3.931455612E0,9.472465515E-1
1.954163903E1,2.700809240E0,-3.566605091E0,6.325335503E-1
1.955163769E1,2.717869759E0,-3.259158611E0,4.985218048E-1
1.956163646E1,2.689506769E0,-3.313438416E0,2.042112350E-1
1.957163526E1,2.432837486E0,-3.475271702E0,-2.162184715E-1
1.958163396E1,2.405096531E0,-3.432209492E0,-3.662676811E-1
1.959163273E1,2.496840239E0,-3.658928871E0,-3.548288345E-2
1.960163149E1,2.568587780E0,-3.861641407E0,4.148044586E-1
1.961163026E1,2.919018269E0,-4.042875767E0,7.575912476E-1
1.962162902E1,3.363602400E0,-4.047907352E0,9.536027908E-1
1.963162779E1,3.439863920E0,-3.621464729E0,9.528150558E-1
1.964162656E1,2.995130062E0,-3.058307171E0,9.895195961E-1
1.965162532E1,2.234972954E0,-2.503740788E0,9.907999039E-1
1.966162402E1,1.712348819E0,-2.189212322E0,1.269500732E0
1.967162279E1,1.553489447E0,-1.979321003E0,1.520605564E0
1.968162159E1,1.249523878E0,-2.027707100E0,1.393210888E0
1.969162035E1,1.470030665E0,-2.103919983E0,1.410105228E0
1.970161919E1,1.612658143E0,-1.936189175E0,1.375548840E0
1.971161809E1,1.782528281E0,-1.945842266E0,1.667914391E0
1.972161692E1,1.908343792E0,-1.841696739E0,2.059337616E0
1.973161582E1,1.932745695E0,-1.646806717E0,2.428155899E0
1.974161472E1,1.883970499E0,-1.362108231E0,2.527078629E0
1.975161362E1,1.820003271E0,-9.377055168E-1,2.711866379E0
1.976161255E1,1.540187716E0,-7.243194580E-1,2.816722870E0
1.977161145E1,1.242807746E0,-4.623055458E-1,2.926537037E0
1.978161035E1,1.469415784E0,-1.413784027E-1,3.448513269E0
1.979160925E1,1.592198372E0,-2.575683594E-2,3.891673803E0
1.980160809E1,2.151628971E0,2.149934769E-1,4.262507915E0
1.981160695E1,2.334394693E0,6.495904922E-1,4.894128323E0
1.982160582E1,1.985423565E0,1.070160866E0,4.871881485E0
1.983160462E1,1.716486096E0,1.528329849E0,4.554718494E0
1.984160348E1,1.720090389E0,1.756216049E0,4.065055847E0
1.985160238E1,1.698896885E0,1.644194126E0,3.729351997E0
1.986160125E1,1.835630655E0,1.315778732E0,3.584244490E0
1.987160008E1,2.144115448E0,5.925965309E-1,3.303159475E0
1.988159895E1,2.431300402E0,-1.200675964E-3,2.979411602E0
1.989159782E1,2.442146301E0,-4.373688698E-1,2.637727261E0
1.990159668E1,2.355978489E0,-6.275677681E-1,2.308997631E0
1.991159548E1,2.080750942E0,-6.079001427E-1,2.183584690E0
1.992159435E1,1.775465965E0,-8.133835793E-1,2.005896091E0
1.993159321E1,1.645002842E0,-1.296762466E0,1.796835423E0
1.994159201E1,1.705897212E0,-1.597418785E0,1.733334064E0
1.995159088E1,1.839638352E0,-1.918961525E0,1.659344673E0
1.996158974E1,2.134214401E0,-2.090490341E0,1.662962437E0
1.997158854E1,2.416643381E0,-2.386244774E0,1.530384064E0
1.998158738E1,2.561546564E0,-2.524010181E0,1.356769085E0
1.999158618E1,2.715483427E0,-2.474958420E0,1.152924061E0
2.000158498E1,2.885071278E0,-2.352599621E0,9.590535164E-1
2.001158371E1,3.117735147E0,-2.047145367E0,6.887469292E-1
2.002158244E1,3.330220699E0,-1.799771786E0,3.963646889E-1
2.003158118E1,3.322895527E0,-1.531161308E0,2.020788193E-1
2.004157994E1,3.219117165E0,-1.361720562E0,2.228527069E-1
2.005157864E1,3.061765671E0,-1.319824219E0,3.639030457E-1
2.006157738E1,2.697474003E0,-1.399085999E0,6.798815727E-1
2.007157611E1,2.096845627E0,-1.681171417E0,6.593112946E-1
2.008157478E1,1.906889439E0,-2.022580624E0,5.438699722E-1
2.009157351E1,2.005247593E0,-2.239181519E0,4.443840981E-1
2.010157227E1,2.249274254E0,-2.655300140E0,3.781933784E-1
2.011157104E1,2.641107559E0,-2.931816101E0,2.015872002E-1
2.012156981E1,2.924077988E0,-3.574442387E0,4.968132973E-1
2.013156857E1,3.167878151E0,-4.025164127E0,4.141535759E-1
2.014156734E1,3.190085411E0,-4.313220501E0,3.489046097E-1
2.015156610E1,3.182869911E0,-4.251108170E0,4.849367142E-1
2.016156480E1,2.988760710E0,-4.230021477E0,8.772344589E-1
2.017156357E1,2.769972563E0,-4.084343910E0,1.324716330E0
2.018156234E1,2.565977335E0,-3.774360180E0,1.420437098E0
2.019156104E1,2.391290426E0,-3.509945393E0,1.563323021E0
2.020155980E1,2.354344368E0,-3.354515076E0,1.563968420E0
2.021155857E1,2.274920464E0,-3.052042007E0,1.621552706E0
2.022155730E1,2.258683443E0,-2.629514217E0,1.648118019E0
2.023155607E1,2.066893578E0,-2.389781475E0,1.442997932E0
2.024155483E1,1.802046061E0,-2.254349232E0,1.340327978E0
2.025155360E1,1.576012611E0,-2.333096981E0,1.282126904E0
2.026155236E1,1.667809963E0,-2.566035271E0,1.406326771E0
2.027155113E1,1.861637354E0,-2.824924946E0,1.297925949E0
2.028154990E1,2.220585108E0,-3.225616455E0,8.758232594E-1
2.029154866E1,2.528673887E0,-3.400312901E0,5.750722885E-1
2.030154736E1,3.070016623E0,-3.592329979E0,3.394412994E-2
2.031154613E1,3.412168264E0,-3.486309052E0,-3.590722084E-1
2.032154490E1,3.532290697E0,-3.295654297E0,-4.643073082E-1
2.033154360E1,3.466307878E0,-3.009429455E0,-4.859004021E-1
2.034154233E1,3.294876099E0,-2.774684429E0,-2.055668831E-1
2.035154106E1,3.041065931E0,-2.472908497E0,2.573442459E-2
2.036153983E1,2.649712324E0,-2.200116158E0,2.867274284E-1
2.037153859E1,2.468767881E0,-1.738091469E0,5.185520649E-1
2.038153736E1,2.236368179E0,-1.397587776E0,7.112300396E-1
2.039153613E1,2.348529577E0,-1.397658348E0,6.828258038E-1
2.040153486E1,2.833208561E0,-2.151567459E0,8.612391949E-1
2.041153352E1,2.984158039E0,-2.656504631E0,9.297730923E-1
2.042153226E1,2.984497786E0,-2.885546684E0,6.405863762E-1
2.043153099E1,2.924166918E0,-3.152982235E0,5.399518013E-1
2.044152966E1,2.762253046E0,-3.050077915E0,7.940180302E-1
2.045152836E1,2.491558552E0,-2.676782608E0,9.372835159E-1
2.046152706E1,2.408817291E0,-2.139886856E0,1.058717489E0
2.047152576E1,2.354053259E0,-1.899816513E0,1.126171827E0
2.048152449E1,2.359959602E0,-1.914857388E0,9.500446320E-1
2.049152319E1,2.531195402E0,-2.111382484E0,1.152023315E0
2.050152189E1,2.460271358E0,-2.269147873E0,1.185449839E0
2.051152066E1,2.543940783E0,-2.253227234E0,1.240161657E0
2.052151939E1,2.524365425E0,-2.283443928E0,1.247998714E0
2.053151815E1,2.565399647E0,-2.420963764E0,9.329204559E-1
2.054151692E1,2.569393873E0,-2.584984779E0,5.218272209E-1
2.055151562E1,2.667787313E0,-2.742389679E0,4.034466743E-1
2.056151439E1,2.814576149E0,-2.790907860E0,4.616956711E-1
2.057151315E1,3.082211494E0,-2.815437794E0,6.012988091E-1
2.058151188E1,3.300703049E0,-2.665384293E0,7.960228920E-1
2.059151065E1,3.393225193E0,-2.521169662E0,1.034457684E0
2.060150942E1,3.435680151E0,-2.466231823E0,1.185392857E0
2.061150818E1,3.383305073E0,-2.426424503E0,1.284063816E0
2.062150695E1,3.228646755E0,-2.505090237E0,1.398233891E0
2.063150572E1,3.229118347E0,-2.464251518E0,1.684111118E0
2.064150448E1,3.106586695E0,-2.489812374E0,1.774780035E0
2.065150325E1,2.980066299E0,-2.591109276E0,1.564216137E0
2.066150195E1,2.829998255E0,-2.742662430E0,1.583314896E0
2.067150071E1,2.845178604E0,-2.956354141E0,1.468297482E0
2.068149948E1,2.828643799E0,-3.260511398E0,1.123248100E0
2.069149818E1,2.625213146E0,-3.514947891E0,6.990699768E-1
2.070149695E1,2.457370281E0,-3.627972126E0,3.342380524E-1
2.071149571E1,2.350850821E0,-3.777434826E0,1.624102592E-1
2.072149451E1,2.352533817E0,-3.748412132E0,1.327247620E-1
2.073149331E1,2.401931286E0,-3.654662609E0,3.097696304E-1
