"Time (s)","Acceleration x (m/s^2)","Acceleration y (m/s^2)","Acceleration z (m/s^2)"
0.000000000E0,-8.954587579E-1,3.790137053E0,5.054314137E0
1.000732180E-1,2.813272953E0,1.453324795E0,9.306546211E0
2.001412990E-1,4.434196949E0,7.233104229E0,1.078141975E1
3.002060480E-1,-4.194769382E0,7.336058140E0,1.010383987E1
4.002684280E-1,-3.847599506E0,3.488458395E0,4.005621910E0
5.003421070E-1,-4.070267200E0,3.213116884E0,7.190007210E0
6.004023850E-1,-5.418243885E0,1.136083412E1,1.347976685E1
7.004665660E-1,-3.404658794E0,6.699181080E0,9.498087883E0
8.005383770E-1,3.076643229E0,8.092648983E-1,5.190787792E0
9.006043240E-1,3.217905283E0,4.984879971E0,1.373116589E1
1.000670538E0,-3.155654192E0,8.767834663E0,1.957080269E1
1.100734292E0,-3.052700281E0,4.958543301E0,4.470110893E0
1.200808239E0,-3.723097324E0,2.379909277E0,2.849187136E0
1.300870852E0,-5.832453251E0,1.005356026E1,1.274472523E1
1.400938834E0,-3.210722446E0,8.121379852E0,9.670475960E0
1.501031814E0,3.071854591E0,1.436564922E0,5.164450645E0
1.601075860E0,2.195549965E0,1.896265626E0,8.202785492E0
1.701141942E0,-3.632114887E0,1.221559048E1,1.024510193E1
1.801205025E0,-1.831620216E0,6.263422966E0,3.505218267E0
1.901279145E0,-2.221887112E0,4.221106529E0,3.486064196E0
2.001347759E0,-7.379155159E0,6.941002846E0,8.360807419E0
2.101409706E0,-2.478074312E0,8.502069473E0,8.377567291E0
2.201483786E0,3.359167576E0,2.590605259E0,8.253065109E0
2.301543966E0,1.970488191E0,2.264983892E0,7.101418972E0
2.401608351E0,1.065452337E0,1.016130257E1,1.436564922E-1
2.501690697E0,-3.330436230E0,7.292961121E0,8.990502357E0
2.601748910E0,-2.114144564E0,4.604190350E0,4.496448040E0
2.701815791E0,-5.561900616E0,4.699961662E0,6.344828129E0
2.801879940E0,-1.364736676E0,1.106394386E1,1.087240219E1
2.901948353E0,2.722290516E0,5.066285610E0,5.097411156E0
3.002018864E0,1.573038578E0,5.985686779E-1,4.005621910E0
3.102079844E0,4.022381783E0,7.589851379E0,6.799740314E0
3.202156931E0,-3.751828671E0,9.040781975E0,8.614601135E0
3.302210178E0,-2.940169573E0,5.559505939E0,5.801327705E0
3.402287528E0,-4.628133297E0,5.183605194E0,6.605803967E0
3.502359741E0,-3.653663397E0,1.300809479E1,1.285007286E1
3.602423254E0,6.703969836E-2,6.799740314E0,2.715107679E0
3.702493272E0,4.178009510E0,1.462901950E0,5.767807961E0
3.802557852E0,4.661653042E0,4.721509933E0,1.419086647E1
3.902616498E0,-5.861184597E0,1.322357941E1,7.515628815E0
4.002692576E0,-1.723877907E0,5.458946705E0,3.775771379E0
4.102754322E0,-4.240260601E0,3.996044636E0,4.510813713E0
4.202818174E0,-7.362394810E0,1.287162113E1,1.473197269E1
4.302891890E0,-3.433390141E0,7.798152924E0,5.798933506E0
4.404138527E0,3.861965179E0,3.687183261E-1,9.213169098E0
4.504215908E0,1.649655342E0,4.067873001E0,1.268007946E1
4.604274821E0,-9.883566856E0,1.107352066E1,5.394300938E0
4.704343133E0,-1.419804931E0,6.210748672E0,2.114144564E0
4.804410945E0,-2.092596292E0,4.805309772E0,4.407859802E0
4.904485458E0,-6.363982677E0,8.830085754E0,7.958569527E0
5.004543471E0,-2.832427025E0,9.847652435E0,8.315316200E0
5.104624759E0,2.590605259E0,2.178790092E0,6.933819771E0
5.204685504E0,3.936187744E0,3.512401104E0,7.836461544E0
5.304746919E0,-2.650462151E0,1.097774982E1,1.331216812E0
5.404824000E0,5.411061049E-1,9.150918007E0,3.909850836E0
5.504882546E0,-6.703969240E-1,4.192375183E0,7.446194887E-1
5.604950326E0,-4.486870766E0,6.646506786E0,5.293741703E0
5.705014738E0,2.427794695E0,1.320442581E1,4.048718929E0
5.805083086E0,3.134105682E0,3.313676357E0,6.361588001E0
5.905160266E0,3.627326250E0,1.776551962E0,6.514821529E0
6.005216046E0,5.604997158E0,9.481328011E0,6.677632332E0
6.105285395E0,-3.596200705E0,8.071100235E0,1.154998207E1
6.205355082E0,-2.935380936E0,4.010410309E0,6.663266659E0
6.305423662E0,-6.165257454E0,4.106181145E0,7.893924236E0
6.405488844E0,-5.171633363E-1,1.247417164E1,1.431776333E1
6.505554793E0,6.895511150E-1,5.370358467E0,5.001639843E0
6.605616677E0,2.784541607E0,8.212362528E-1,6.864386082E0
6.705694394E0,6.701575279E0,6.603409767E0,1.034805584E1
6.805752574E0,-6.220325947E0,1.045340347E1,1.102563572E1
6.905823086E0,-3.067065954E0,4.781366825E0,4.297723293E0
7.005886166E0,-3.967313290E0,4.039141655E0,3.735068798E0
7.105956279E0,-6.682421207E0,1.353962421E1,1.323794556E1
7.206021125E0,-3.047911882E0,7.707170486E0,5.078257084E0
7.306084539E0,4.438985348E0,6.081457734E-1,9.074301720E0
7.406153420E0,2.542719841E0,5.224307537E0,1.483013821E1
7.506221600E0,-7.951386452E0,1.175349522E1,5.011217117E0
7.606288846E0,-1.254600048E0,6.256239891E0,3.703943014E0
7.706355459E0,3.040728867E-1,4.980091572E0,1.347976685E0
7.806423641E0,-5.435003757E0,9.553156853E0,8.662486076E0
7.906491786E0,-4.455745220E0,9.943423271E0,8.071100235E0
8.006556966E0,3.277762175E0,1.644866824E0,5.559505939E0
8.106624247E0,3.507612705E0,1.750214934E0,5.997658253E0
8.206691861E0,-5.276981831E0,1.084127617E1,6.533976078E0
8.306764475E0,-1.340793967E-1,1.033129597E1,3.584229469E0
8.406826656E0,-3.076643229E0,3.138894320E0,1.778946161E0
8.506893206E0,-5.190787792E0,5.238673210E0,8.676852226E0
8.606971887E0,-9.122186899E-1,1.190912247E1,1.444705391E1
8.707027602E0,8.619389534E-1,3.354378939E0,7.577879906E0
8.807098015E0,3.838022470E0,2.418217510E-1,4.233078003E0
8.907161262E0,2.535537004E0,5.528380394E0,1.095620155E1
9.007231374E0,-8.138139725E0,9.364008904E0,1.755961227E1
9.107299327E0,-5.183605194E0,4.637710094E0,6.026389599E0
9.207361810E0,-3.517189741E0,3.780560017E0,3.529160976E0
9.307428390E0,-8.415876389E0,1.363300037E1,1.098014450E1
9.407518636E0,-4.154066563E0,6.658478260E0,4.798126698E0
9.507580383E0,4.386311531E0,8.595446348E-1,8.377567291E0
9.607630264E0,3.996044636E0,5.351204395E0,9.021627426E0
9.707698280E0,-5.909070015E0,1.132491970E1,7.008042336E0
9.807768559E0,-2.454131603E0,5.233884811E0,1.800494671E0
9.907841407E0,-1.185166001E0,3.809291124E0,1.819648862E0
1.000790272E1,-8.066311836E0,7.640130997E0,7.975329399E0
1.010797277E1,-2.466102988E-1,1.100887585E1,8.178842545E0
1.020803685E1,2.315263748E0,1.771763325E0,5.514014721E0
1.030810193E1,6.720729351E0,2.219492674E0,3.193962574E0
1.040817461E1,9.098244458E-2,9.088666916E0,2.815667152E0
1.050823353E1,-3.680000305E0,9.129369736E0,7.661679268E0
1.060830354E1,-3.351984918E-2,5.710345268E0,2.068653345E0
1.070837138E1,-6.129343510E0,4.209135056E0,7.587456703E0
1.080845163E1,-3.222693920E0,1.338399601E1,7.501263142E0
1.090850864E1,-9.816526622E-2,5.008822918E0,8.413481712E0
1.100858382E1,5.435003757E0,1.142069101E0,6.026389599E0
1.110864617E1,2.516382933E0,5.387118340E0,1.171039772E1
1.120870645E1,-6.079063892E0,1.076226521E1,1.679344368E1
1.130876927E1,-4.925023079E0,4.388705730E0,6.988888264E0
1.140884555E1,-3.979284763E0,4.180403709E0,5.241067410E0
1.150890719E1,-3.308887720E0,1.166490650E1,1.253642273E1
1.160898354E1,-1.465296149E0,6.869174480E0,4.905869007E0
1.170904771E1,5.478100777E0,1.391073704E0,8.731920242E0
1.180909749E1,3.136499882E0,5.008822918E0,1.112140656E1
1.190915854E1,-4.300117493E0,1.128661156E1,1.598417854E1
1.200922475E1,-3.929004908E0,4.532361984E0,6.498061657E0
1.210929516E1,-7.901106775E-2,3.912245035E0,4.573064744E-1
1.220936201E1,-7.328875065E0,8.281796455E0,7.635342598E0
1.230942526E1,1.556278616E-1,1.103281784E1,7.788576126E0
1.240949441E1,3.486064196E0,1.862745762E0,9.177255630E0
1.250955963E1,3.332830429E0,2.138087511E0,5.248250484E0
1.260963094E1,-1.893871427E0,1.241670895E1,2.399063349E0
1.270969419E1,-2.008796453E0,7.778998852E0,4.201952457E0
1.280976317E1,-1.400650740E0,4.640104771E0,1.788523316E0
1.290982892E1,-5.842030525E0,5.633728504E0,7.836461544E0
1.300989663E1,1.352765322E0,1.084606457E1,1.122436047E1
1.310996371E1,4.692778587E-1,3.447755814E0,7.597033978E0
1.321003139E1,3.191568375E0,7.685621977E-1,8.664880753E0
1.331010794E1,5.339232922E0,7.395915031E0,1.160983849E1
1.341016595E1,-5.921041489E0,9.059935570E0,1.232812119E1
1.351023406E1,-4.769395351E0,4.041535854E0,4.711932659E0
1.361029824E1,-3.806896925E0,3.227482557E0,4.264203548E0
1.371036403E1,-8.810931444E-1,1.207432747E1,1.634571457E1
1.381043504E1,-2.583422422E0,6.969734192E0,6.838048935E0
1.391049992E1,2.650462151E0,5.818088055E-1,6.265817165E0
1.401056977E1,2.300898075E0,5.262616158E0,1.128900528E1
1.411064168E1,-2.411034822E0,9.680052757E0,1.626670265E1
1.421070536E1,-3.122134447E0,4.996851444E0,4.975303173E0
1.431077477E1,-2.355966330E0,2.406246185E0,3.222693920E0
1.441084192E1,-6.093429565E0,1.150688457E1,1.521082783E1
1.451090676E1,-2.894678354E0,9.115004539E0,8.717555046E0
1.461097604E1,3.023969173E0,8.619389534E-1,8.348835945E0
1.471103162E1,2.916226625E0,9.648927450E-1,8.554743767E0
1.481111654E1,-4.697566986E0,1.266092491E1,8.047157288E0
1.491117515E1,2.657645047E-1,7.024802208E0,3.342407703E0
1.501123923E1,-5.147690773E-1,3.557892323E0,1.292908341E-1
1.511131041E1,-7.216344357E0,5.954561234E0,7.304932594E0
1.521137852E1,7.374366522E-1,1.234488106E1,8.037580490E0
1.531144010E1,1.692752242E0,2.037527800E0,7.465348721E0
1.541151308E1,2.930592299E0,1.177983165E0,1.685569525E0
1.551157446E1,1.065452337E0,1.098732662E1,1.304879785E0
1.561164374E1,-3.804502726E0,9.759063721E0,9.040781975E0
1.571170296E1,-2.116539001E0,4.316877365E0,4.233078003E0
1.581177561E1,-5.609786034E0,4.573064804E0,6.184412003E0
1.591184342E1,-1.412622094E0,1.409988403E1,1.335526466E1
1.601190847E1,-3.615354896E-1,6.512427330E0,3.938581944E0
1.611197705E1,3.280156374E0,-5.985686928E-2,4.000833035E0
1.621204440E1,3.450150013E0,5.190787792E0,1.295302677E1
1.631212271E1,-8.123774529E0,1.332892799E1,1.217967606E1
1.641218643E1,-3.981678963E0,4.994457245E0,3.663240433E0
1.651225181E1,-2.037527800E0,3.648874760E0,-2.729473412E-1
1.661232020E1,-1.174631214E1,1.295542145E1,1.130337143E1
1.671238338E1,-5.456552505E0,9.040781975E0,8.327287674E0
1.681245299E1,5.449369431E0,-5.530774593E-1,7.383943558E0
1.691252487E1,2.006402254E0,3.002420664E0,9.150918007E0
1.701258721E1,-4.288146019E0,1.331695652E1,1.752130318E1
1.711264986E1,-2.384697676E0,6.454965115E0,2.760598898E0
1.721272314E1,-3.014391899E0,4.350397110E0,2.906649590E0
1.731277993E1,-9.775823593E0,8.083071709E0,9.854835510E0
1.741285471E1,-1.125309169E-1,1.062100315E1,5.856396198E0
1.751292050E1,1.400650740E0,2.545114040E0,3.701548815E0
1.761299147E1,4.106181145E0,2.219492674E0,6.557918549E0
1.771305373E1,-7.470137477E-1,8.873182297E0,3.416630268E0
1.781313208E1,-4.379128456E0,9.062330246E0,1.188757420E1
1.791319940E1,-2.995237827E0,3.991255999E0,3.150865555E0
1.801325305E1,-5.530774593E0,3.423812866E0,3.016786337E0
1.811332540E1,2.035133541E-1,1.561067200E1,1.364976025E1
1.821339308E1,1.144463301E0,6.409473896E0,5.490072250E0
1.831345843E1,4.620950222E0,-6.703969240E-1,4.630527496E0
1.841352197E1,3.955342054E0,5.387118340E0,1.394904518E1
1.851360003E1,-6.988888264E0,1.096098995E1,1.633613777E1
1.861365314E1,-3.847599506E0,4.549122334E0,6.241874218E0
1.871371789E1,-3.644086361E0,3.308887720E0,3.000026226E0
1.881378844E1,-1.088197899E1,1.529941559E1,1.336484241E1
1.891385692E1,-4.443774223E0,8.784594536E0,4.767001152E0
1.901396856E1,3.287339211E0,-2.162030220E0,9.835680962E0
1.911403660E1,6.385530949E0,4.348002911E0,8.961771011E0
1.921410961E1,-4.082238674E0,1.531857014E1,1.630261803E1
1.931416959E1,-3.349590540E0,8.854028702E0,5.051919818E-1
1.941424054E1,-4.913052082E0,2.810878515E0,5.913859010E-1
1.951430395E1,-8.221940041E0,9.486116409E0,7.877163887E0
1.961437187E1,-3.131711483E0,1.056354046E1,6.306519985E0
1.971443308E1,4.264203548E0,1.908236980E0,6.399896622E0
1.981450633E1,4.106181145E0,1.233051538E0,5.909070015E0
1.991458031E1,-3.495641351E-1,1.102324104E1,-1.709512234E0
2.001463819E1,-2.537931204E-1,9.871595383E0,5.633728504E0
2.011471117E1,-4.063084126E0,3.100585938E0,2.006402254E0
2.021477438E1,-5.379935265E0,6.028783798E0,5.430215359E0
2.031484290E1,-2.458920240E0,1.423156929E1,1.349413300E1
2.041490771E1,-2.530748367E0,5.348809719E0,2.949746609E0
2.051497663E1,8.605023384E0,-1.364736706E-1,6.284971237E0
2.061504321E1,4.956148624E0,6.545947552E0,1.324512863E1
2.071510435E1,-5.868367672E0,1.007271385E1,1.289077568E1
2.081517634E1,-5.985687256E0,4.743058205E0,5.370358467E0
2.091524309E1,-5.097411156E0,4.745452881E0,7.587456703E0
2.101532004E1,-7.055927753E0,1.411425018E1,1.195461369E1
2.111538125E1,-1.283331275E0,6.390319347E0,4.795732498E0
2.121544430E1,6.337645531E0,-1.987248063E-1,1.136801720E1
2.131551287E1,2.870735407E0,1.826831698E0,9.773429871E0
2.141558645E1,-6.996070862E0,9.620196342E0,2.280786133E1
2.151564564E1,-1.982459545E0,8.480521202E0,5.075862408E0
2.161571288E1,-2.628913641E0,4.585036278E0,5.042342663E0
2.171578680E1,-9.735121727E0,5.806116581E0,7.491685867E0
2.181585428E1,8.475732803E-1,1.018285084E1,9.706390381E0
2.191591380E1,3.162837029E0,1.848380208E0,8.047157288E0
2.201598191E1,4.084632874E0,1.690358043E0,3.828445435E0
2.211604979E1,1.388679385E0,7.783787251E0,3.131711483E0
2.221611680E1,-5.667248249E0,9.593858719E0,1.177743816E1
2.231618861E1,-3.723097324E0,3.763799906E0,4.072661400E0
2.241625726E1,-5.004034519E0,2.806090117E0,3.172414064E0
2.251631718E1,-1.879505754E0,1.436804295E1,1.930743217E1
2.261638639E1,-1.072635174E0,6.677632332E0,4.632921696E0
2.271644540E1,5.286558628E0,-5.985686779E-1,7.448588848E0
2.281653685E1,4.130124092E0,3.100585938E0,1.296020985E1
2.291659300E1,-7.391126156E0,1.235206413E1,2.333460236E1
2.301665388E1,-3.826051235E0,5.992869854E0,4.079844475E0
2.311671920E1,-4.431802750E0,2.121327400E0,1.290514112E0
2.321678794E1,-9.885960579E0,1.007032013E1,1.285725594E1
2.331685739E1,2.035133541E-1,8.755863190E0,9.421471596E0
2.341692495E1,5.126142502E0,2.418217510E-1,6.311308384E0
2.351699550E1,4.558699131E0,8.906702399E-1,2.343995094E0
2.361705381E1,1.599375606E0,1.117886925E1,4.110970020E0
2.371713183E1,-1.221080184E0,8.588263512E0,6.270605564E0
2.381719085E1,-3.062277555E0,4.034353256E0,1.901054144E0
2.391726266E1,-5.406272411E0,5.348809719E0,8.906702042E0
2.401733154E1,2.581028223E0,1.146139336E1,1.187320900E1
2.411739362E1,1.683175206E0,3.811685562E0,8.667274475E0
2.421745970E1,8.566715240E0,-2.123721838E0,2.961717844E0
2.431752782E1,2.865947008E0,3.799714088E0,8.913885117E0
2.441759330E1,-8.830085754E0,1.063297462E1,1.852210999E1
2.451767621E1,-4.994457245E0,4.762212753E0,1.994430900E0
2.461772510E1,-3.548315287E0,2.765387297E0,-4.479688168E0
2.471778909E1,-8.154899597E0,1.385806274E1,1.556518078E1
2.481787947E1,-3.842811108E0,6.270605564E0,5.284164429E0
2.491793578E1,7.357606411E0,8.332076073E-1,8.217150688E0
2.501800156E1,2.727078915E0,2.456526041E0,9.794978142E0
2.511806208E1,-1.120520592E0,1.348934460E1,2.452695084E1
2.521813272E1,-4.862771988E0,7.046350956E0,4.788549542E-1
2.531821314E1,-2.672010660E0,2.159635782E0,-2.233858347E0
2.541826312E1,-8.243488312E0,1.049889469E1,1.035523891E1
2.551834103E1,7.877163887E-1,1.263219357E1,6.945791245E0
2.561840201E1,2.633702382E-2,2.339206457E0,5.992869854E0
2.571847017E1,6.103006363E0,-2.889889717E0,1.345582485E0
2.581853222E1,2.932986736E0,1.292908382E1,-8.451790214E-1
2.591860743E1,1.326428294E0,1.056593513E1,7.752661705E0
2.601867304E1,-4.223500729E0,3.368744612E0,1.359948039E0
2.611875973E1,-7.891529560E0,4.972908974E0,-3.304099143E-1
2.621880031E1,2.099778891E0,1.664978790E1,1.618769264E1
2.631910142E1,-2.700742006E0,5.437397957E0,4.587430477E0
2.641916433E1,6.459753513E0,-1.659232497E0,1.075029373E1
2.651923088E1,2.753416061E0,3.610566378E0,1.381496525E1
2.661930162E1,-7.826884270E0,1.325709915E1,2.374641800E1
2.671936537E1,-1.264177084E0,6.821289062E0,1.149251938E0
2.681943099E1,-2.530748367E0,1.867534399E0,7.422251701E-1
2.691949453E1,-1.149970150E1,1.219164753E1,1.530659866E1
2.701956148E1,3.064671755E-1,1.070240879E1,6.246663094E0
2.711962840E1,3.708731651E0,-7.901106775E-2,5.760625362E0
2.721969784E1,7.558725357E0,-1.675992459E-2,1.364736676E0
2.731977092E1,3.447755575E-1,1.029538155E1,9.342460632E0
2.741982790E1,-2.315263748E0,1.086521912E1,6.234691620E0
2.751989808E1,-3.014391899E0,3.624932051E0,1.130097747E0
2.761996232E1,-5.346415520E0,1.980065227E0,-1.003201127E0
2.772003127E1,2.020767927E0,1.634092522E1,2.162030220E1
2.782010245E1,-3.265790939E0,5.281770229E0,4.608979225E0
2.792016497E1,5.276981831E0,-1.266571403E0,6.445387840E0
2.802023105E1,4.992063046E0,1.381496549E0,1.359469223E1
2.812029929E1,-6.821289062E0,1.240473747E1,2.312869453E1
2.822036704E1,-3.933793545E0,5.834847927E0,1.551490068E0
2.832043349E1,-3.493247032E0,2.188367128E0,-2.059076309E0
2.842050147E1,-1.075029373E1,9.948211670E0,1.413819313E1
2.852056645E1,-2.547508478E0,9.881172180E0,1.017566776E1
2.862064186E1,4.556304932E0,8.379961550E-2,5.789356709E0
2.872070611E1,8.281796455E0,-5.363175869E-1,-1.201925993E0
2.882076837E1,-2.037527800E0,1.282852459E1,7.137333393E0
2.892083778E1,-4.817280769E0,9.198803902E0,3.931399345E0
2.902091083E1,-3.215511084E0,2.796513081E0,3.830839694E-1
2.912097284E1,-5.571477413E0,3.205934048E0,4.225894928E0
2.922103652E1,8.379961550E-2,1.444705391E1,1.915180397E1
2.932111123E1,-2.011190891E0,4.692778587E0,4.556304932E0
2.942118311E1,5.868367672E0,-3.282550812E0,6.019207001E0
2.952123993E1,1.810071707E0,3.129317284E0,1.830183601E1
2.962130377E1,-1.022594738E1,9.718361855E0,2.194831657E1
2.972137182E1,-4.623344421E0,4.098998547E0,8.356019258E-1
2.982143834E1,-4.482082367E0,9.864411950E-1,-7.110996246E-1
2.992151993E1,-1.405199909E1,1.251008606E1,1.907997513E1
3.002157544E1,-3.320859194E0,8.154899597E0,7.376760483E0
3.012164449E1,7.161275864E0,-1.309668303E0,4.127729893E0
3.022171284E1,7.266623974E0,6.680026650E-1,1.532335877E0
3.032177932E1,-4.771789551E0,1.302485466E1,1.530899334E1
3.042184656E1,-5.626545906E0,6.447782040E0,4.795732498E0
3.052191158E1,-3.119740009E0,2.087807655E0,-5.626545548E-1
3.062198126E1,-8.403904915E0,2.047105074E0,3.033546209E0
3.072205210E1,1.608952641E0,1.255078888E1,1.609431458E1
3.082212435E1,-4.956148863E-1,3.794925690E0,5.111776829E0
3.092217800E1,5.810904980E0,-2.018373728E0,6.270605564E0
3.102224618E1,3.232270956E0,4.896292210E0,1.327625370E1
3.112231699E1,-7.965752125E0,9.665687561E0,1.804325485E1
3.122238007E1,-3.220299721E0,3.988861799E0,1.951334000E0
3.132244708E1,-7.460560322E0,4.620950520E-1,1.359948039E0
3.142251333E1,-1.200249958E1,1.339117908E1,2.077512169E1
3.152258014E1,-3.859570980E0,8.186025620E0,1.211981869E1
3.162265246E1,4.745452881E0,-1.498816013E0,3.929004908E0
3.172271294E1,7.893924236E0,2.035133541E-1,1.072635174E0
3.182279023E1,-2.257801056E0,1.172955227E1,1.554123783E1
3.192284871E1,-4.292934895E0,7.036773682E0,4.489265442E0
3.202291882E1,-2.047105074E0,2.559479713E0,-2.068653345E0
3.212298330E1,-1.098253822E1,4.608979225E0,4.453351021E0
3.222305258E1,-4.788549617E-3,1.194982529E1,1.363300037E1
3.232312269E1,3.308887720E0,2.597788095E0,4.829252243E0
3.242319160E1,6.191594601E0,-2.456526041E0,6.373559475E0
3.252325395E1,1.496421814E0,5.664854050E0,1.217249298E1
3.262331777E1,-8.468549728E0,9.083878517E0,1.747581100E1
3.272338469E1,-3.993650436E0,2.985660791E0,4.285751879E-1
3.282345707E1,-8.214756966E0,1.656838179E0,-1.180377483E0
3.292352388E1,-4.407859802E0,1.507914257E1,2.573127174E1
3.302358980E1,-2.751021862E0,5.475706577E0,5.916253090E0
3.312365605E1,5.779779434E0,-2.660039425E0,7.271412373E0
3.322374843E1,4.980091572E0,5.770202279E-1,9.926663399E0
3.332378831E1,-7.932232380E0,9.462174416E0,2.379669762E1
3.342386190E1,-4.853195190E0,5.047131062E0,1.790917516E0
3.352392337E1,-4.549122334E0,1.515576005E0,-2.130904645E-1
3.362592367E1,-1.092028713E1,8.413481712E0,1.180377483E1
3.372600079E1,1.252205729E0,1.129379463E1,8.870788574E0
3.382607110E1,2.755810261E0,-6.464541703E-2,5.071074009E0
3.392613225E1,8.672063828E0,-1.503604531E0,2.284138203E0
3.402619956E1,-2.394274771E-1,1.167687798E1,7.685622215E0
3.412626281E1,-3.629720688E0,1.029059315E1,8.248276711E0
3.422632859E1,-3.943370581E0,4.091815472E0,1.620923996E0
3.432640127E1,-7.908289909E0,2.183578730E0,3.081431627E0
3.442646325E1,-1.819648892E-1,1.320921421E1,2.347825813E1
3.452654143E1,-1.958516836E0,4.690384388E0,3.828445435E0
3.462659768E1,4.654470444E0,-3.818868399E0,6.924242973E0
3.472666179E1,3.031152010E0,4.034353256E0,1.859633255E1
3.482673137E1,-6.411868095E0,1.114534950E1,2.288687325E1
3.492679862E1,-4.350397110E0,4.494053841E0,2.312869549E0
3.502686590E1,-5.492466450E0,1.017566800E0,-1.192348838E0
3.512693945E1,-1.194024849E1,1.349892139E1,2.227154350E1
3.522699956E1,-3.452544212E0,7.482108593E0,6.452570438E0
3.532706664E1,6.624958515E0,-2.487651587E0,4.807703972E0
3.542713602E1,6.782980442E0,9.720755816E-1,9.150918007E0
3.552720193E1,-3.603383541E0,1.146618176E1,2.546790123E1
3.562727741E1,-3.179596901E0,6.031178474E0,3.672817469E0
3.572734063E1,-3.366350412E0,1.944151163E0,-4.549122155E-1
3.582740491E1,-1.143505669E1,7.273807049E0,1.019003391E1
3.592746899E1,-6.153286099E-1,9.399923325E0,7.759844780E0
3.602753830E1,3.256213665E0,-1.197137404E-2,4.156461239E0
3.612760588E1,7.994483471E0,-8.164477348E-1,8.475732803E-1
3.622768296E1,5.123748183E-1,1.036481571E1,7.415069103E0
3.632774731E1,-4.570670605E0,8.482915878E0,9.318517685E0
3.642781109E1,-3.282550812E0,3.462121487E0,3.691971779E0
3.652787544E1,-7.439012051E0,3.249030828E0,4.010410309E0
3.662793902E1,1.936968327E0,1.158589554E1,1.473915577E1
3.672800823E1,1.158828974E0,4.996851444E0,6.213143349E0
3.682808228E1,6.203566074E0,-1.905842781E0,4.970514297E0
3.692813952E1,1.723877907E0,5.111776829E0,1.177504349E1
3.702820901E1,-6.715940952E0,8.854028702E0,1.970009232E1
3.712827632E1,-3.993650436E0,4.434196949E0,5.379935265E0
3.722834633E1,-5.528380394E0,2.214704275E0,5.109382629E0
3.732841018E1,-8.518829346E0,1.178462029E1,1.808874702E1
3.742848386E1,-1.841197371E0,6.579467297E0,7.951386452E0
3.752855711E1,4.194769382E0,-2.394274808E-3,6.828471661E0
3.762860659E1,4.223500729E0,2.482862949E0,7.764633179E0
3.772868041E1,-6.684815407E0,1.199292278E1,2.274082184E1
3.782875119E1,-3.945764780E0,5.760625362E0,2.463708878E0
3.792882097E1,-2.935380936E0,3.011997700E0,-1.166011810E0
3.802887915E1,-1.004877090E1,5.628940105E0,1.038157558E1
3.812894960E1,-1.091789365E0,1.023552513E1,8.540378571E0
3.822902551E1,1.501210332E0,6.608198285E-1,6.064698219E0
3.832908596E1,2.779752970E0,3.304099143E-1,6.043149471E0
3.842915054E1,-9.577099234E-3,1.041749001E1,5.451763630E0
3.852922086E1,1.386285067E0,7.534782887E0,3.105374336E0
3.862928774E1,-2.083019018E-1,4.644893169E0,2.978477955E0
3.872935219E1,-4.352791786E0,3.423812866E0,5.485283375E0
3.882942554E1,1.462901950E0,1.117408085E1,1.037918091E1
3.892949085E1,-2.164424419E0,4.704750061E0,4.477293968E0
3.902955123E1,2.952140808E0,-1.465296149E0,7.482108593E0
3.912962134E1,3.636903524E0,3.538738251E0,1.455000782E1
3.922969069E1,-5.940196037E0,9.308940887E0,1.981741333E1
3.932976431E1,-7.132544518E0,3.126922846E0,4.601796150E0
3.942982356E1,-3.483669758E0,3.035940409E0,1.278542757E0
3.952988464E1,-8.164477348E0,1.058987713E1,1.421720409E1
3.962994955E1,-4.597007632E-1,9.421471596E0,7.163670063E0
3.973002087E1,4.539545059E0,5.985686928E-2,4.836435318E0
3.983008891E1,5.693585396E0,1.580221415E0,4.884320736E0
3.993015516E1,-3.634509087E0,1.077902508E1,1.303682613E1
4.003022270E1,-3.426207304E0,6.081458092E0,4.374340057E0
4.013029375E1,1.604164094E-1,4.218712330E0,2.099778891E0
4.023035676E1,-6.380742550E0,4.460534096E0,6.636929989E0
4.033042238E1,1.831620216E0,1.308231735E1,1.279739857E1
4.043049660E1,1.223474383E0,3.967313290E0,6.361588001E0
4.053056728E1,5.518803596E0,-1.292908430E0,4.268991947E0
4.063062320E1,3.651269197E0,4.498842239E0,1.273514748E1
4.073069104E1,-6.641718388E0,9.909903526E0,1.579263687E1
4.083076972E1,-2.604970932E0,5.078257084E0,3.912245035E0
4.093115337E1,-5.439792156E0,2.990449190E0,3.847599506E0
4.103122132E1,-5.241067410E0,1.292429543E1,1.960910988E1
4.113129120E1,5.746259540E-2,5.992869854E0,-1.125309169E-1
4.123135624E1,3.816473961E0,-8.571503758E-1,7.058321953E0
4.133142429E1,7.233104229E0,2.573845387E0,8.092648506E0
4.143148884E1,-5.063891411E0,1.010144520E1,1.236164093E1
4.153155585E1,-8.810931444E-1,6.129343510E0,2.715107679E0
4.163162110E1,-1.218685865E0,4.388705730E0,3.198751211E0
4.173170002E1,-1.075029373E1,7.122967720E0,1.381735992E1
4.183176161E1,1.707117915E0,9.387951851E0,1.027862167E1
4.193182656E1,2.073441982E0,-6.560313106E-1,6.794951916E0
4.203189501E1,6.921848297E0,1.628106833E-1,1.826831698E0
4.213196369E1,-2.253012657E0,1.270641613E1,7.127756119E0
4.223202737E1,-3.703943014E0,6.742278099E0,6.426233768E0
4.233209858E1,-3.100585938E0,3.124528646E0,1.987248063E0
4.243215993E1,-7.877163887E0,5.293741703E0,7.525205612E0
4.253223808E1,2.073441982E0,1.099929810E1,1.207672215E1
4.263229846E1,-7.494080067E-1,2.818061352E0,4.142095566E0
4.273236307E1,4.340820312E0,-1.769369125E0,7.527599812E0
4.283243109E1,4.704750061E0,3.890696526E0,9.833286285E0
4.293249657E1,-4.063084126E0,1.072156239E1,1.686048317E1
4.303256301E1,-3.696760416E0,4.987274647E0,4.465322495E0
4.313263059E1,-6.840443134E0,3.220299721E0,4.326454639E0
4.323269717E1,-8.097437859E0,1.366652107E1,1.724356651E1
4.333278065E1,-4.472505569E0,5.241067410E0,7.039167881E0
4.343283850E1,5.770202160E0,-1.920208454E0,8.016032219E0
4.353290452E1,2.547508478E0,2.004008055E0,5.808510780E0
4.363296607E1,-1.352765322E0,1.263698196E1,1.441832256E1
4.373303915E1,-1.872322917E0,6.354405403E0,6.682421207E0
4.383309966E1,-3.677606106E0,2.932986736E0,1.565855742E0
4.393316697E1,-1.006074238E1,6.342433929E0,7.886741161E0
4.403323532E1,7.470137477E-1,9.629773140E0,1.003680038E1
4.413330307E1,1.015172482E0,1.685569525E0,5.506832123E0
4.423337488E1,5.449369431E0,-1.197137356E0,4.910657406E0
4.433343539E1,1.103760719E0,9.548367500E0,6.507638931E0
4.443350374E1,-5.073468208E0,7.034379482E0,7.740690231E0
4.453356975E1,-3.184385538E0,4.094210148E0,1.800494671E0
4.463364117E1,-6.771008968E0,3.644086361E0,7.364789486E0
4.473370085E1,-4.963331699E0,1.451409435E1,1.765777588E1
4.483377167E1,-2.777358770E0,5.631334305E0,7.757450581E0
4.493383958E1,5.375146866E0,-2.504411459E0,5.370358467E0
4.503390653E1,1.541913033E0,2.343995094E0,1.524674225E1
4.513397250E1,-3.007209063E0,1.201925945E1,2.198183632E1
4.523405125E1,-4.611373425E0,5.260221958E0,4.975303173E0
4.533411017E1,-2.264983892E0,3.519583941E0,1.417410731E0
4.543417292E1,-8.466156006E0,1.227784157E1,1.252923965E1
4.553424624E1,-1.122914910E0,9.146129608E0,5.109382629E0
4.563430368E1,4.927417755E0,9.672870040E-1,4.743058205E0
4.573438467E1,4.000833035E0,1.218685865E0,5.978504181E0
4.583444178E1,-1.321639657E0,1.058030033E1,3.869148016E0
4.593451197E1,-1.834014535E0,8.037580490E0,5.628940105E0
4.603458265E1,-2.952140808E0,4.666441441E0,6.249057055E-1
4.613464680E1,-6.883540154E0,6.727912426E0,5.906675816E0
4.623471528E1,9.792584181E-1,1.140871906E1,6.311308384E0
4.633477829E1,-1.127703428E0,3.110162973E0,4.810098171E0
4.643485064E1,5.293741703E0,-6.009629965E-1,6.727912426E0
4.653491112E1,6.196382999E0,6.375953674E0,1.173194695E1
4.663497821E1,-7.058321953E0,1.096098995E1,1.765777588E1
4.673505429E1,-5.516408920E0,5.166844845E0,4.683201313E0
4.683512560E1,-2.581028223E0,2.899466753E0,-1.101366431E-1
4.693518528E1,-9.024022102E0,1.313259697E1,1.146618176E1
4.703525003E1,-5.901887417E0,6.316096783E0,8.020820618E0
4.713532191E1,7.917866707E0,5.027977005E-2,1.218446445E1
4.723538719E1,2.772570133E0,3.778165579E0,7.089447498E0
4.733545284E1,-6.531581879E0,1.228981304E1,1.726990509E1
4.743552138E1,-4.812492430E-1,7.029590607E0,6.464541703E-2
4.753558637E1,-4.173221111E0,5.255433083E0,9.201197624E0
4.763564728E1,-7.771816254E0,7.846038342E0,7.889135361E0
4.773572290E1,1.917814136E0,1.216052151E1,4.242654800E0
4.783578285E1,2.181184292E0,1.743032098E0,5.842030525E0
4.793585523E1,5.042342663E0,1.367130876E0,3.126922846E0
4.803592794E1,1.520364523E0,1.003201103E1,3.232270956E0
4.813602253E1,-5.554717541E0,8.243488312E0,1.098732662E1
4.823608945E1,-1.819648862E0,4.228289127E0,2.458920240E0
4.833616406E1,-6.842837334E0,4.608979225E0,4.230683804E0
4.843622104E1,-1.283331275E0,1.365215492E1,1.399693012E1
4.853628718E1,-2.801301479E0,5.763019562E0,7.908289909E0
4.863635287E1,7.364789486E0,-8.547561169E-1,8.794171333E0
4.873642998E1,4.762212753E0,3.067065954E0,1.399693012E1
4.883649183E1,-6.050332546E0,1.229699516E1,1.890279961E1
4.893656111E1,-4.450956821E0,5.051919937E0,2.284138203E0
4.903662400E1,-2.284138203E0,4.484476566E0,2.499622822E0
4.913669074E1,-8.851634026E0,1.160026169E1,1.643430138E1
4.923675739E1,-2.260195494E0,9.170072556E0,4.553910732E0
4.933683333E1,2.463708878E0,1.161223292E0,7.292961121E0
4.943689928E1,7.680833817E0,-4.142095447E-1,2.547508478E0
4.953696422E1,9.457385540E-1,9.033598900E0,7.046350956E0
4.963702230E1,-2.509200096E0,9.632167816E0,9.043175697E0
4.973709172E1,-9.313728809E-1,5.743865490E0,1.649655342E0
4.983716684E1,-8.028003693E0,4.628133297E0,4.606584549E0
4.993722959E1,7.254652381E-1,1.358750916E1,1.242389202E1
5.003729457E1,-2.145270348E0,4.031958580E0,5.619362831E0
5.013736095E1,4.472505569E0,-2.190761566E0,1.055156898E1
5.023742924E1,6.785374641E0,4.314483166E0,1.285964966E1
5.033750488E1,-4.551516533E0,1.104239559E1,2.198901939E1
5.043756663E1,-4.213923454E0,4.843617916E0,3.895485163E0
5.053763168E1,-2.839609861E0,2.547508478E0,8.810931444E-1
5.063769546E1,-6.917059898E0,1.234966946E1,1.460268211E1
5.073776165E1,-1.640078187E0,9.794978142E0,6.730306625E0
5.083782933E1,3.289733648E0,4.070267081E-1,5.226701736E0
5.093790258E1,5.193181992E0,6.392713785E-1,5.020794392E0
5.103796866E1,1.326428294E0,1.282612991E1,1.364976025E1
5.113803217E1,3.567469418E-1,7.321692467E0,5.097411156E0
5.123809972E1,-2.652856588E0,2.992843628E0,1.573038578E0
5.133817059E1,-9.038387299E0,5.616968632E0,8.808537483E0
5.143824181E1,2.638490915E0,1.309428883E1,1.119084072E1
5.153830623E1,2.909043789E0,3.981678963E0,3.598595142E0
5.163836971E1,3.318464994E0,-1.857957244E0,5.145296574E0
5.173843642E1,-4.932205975E-1,8.698400497E0,1.043903828E1
5.183850207E1,1.750214934E0,9.107821465E0,1.087240219E1
5.193856972E1,3.591412306E-1,4.314483166E0,3.146077156E0
5.203863893E1,-4.740664005E0,2.774964571E0,4.288146019E0
5.213870368E1,-2.513988614E-1,1.441832256E1,1.860112190E1
5.223877192E1,-1.027143836E0,6.512427330E0,5.478100777E0
5.233884284E1,4.058295727E0,-5.722316504E-1,7.151699066E0
5.243890629E1,4.573064804E0,-1.460507661E-1,1.449493980E1
5.253897574E1,-1.798100352E0,1.075029373E1,2.077751732E1
5.263903482E1,-8.763045669E-1,6.897905827E0,2.245829821E0
5.273910973E1,-3.344801903E0,3.658451796E0,1.975276709E0
5.283917748E1,-8.980924606E0,9.754275322E0,1.285486126E1
5.293924999E1,-5.004034638E-1,1.100648117E1,8.078283310E0
5.303931751E1,1.771763325E0,9.074301720E-1,6.340039730E0
5.313938156E1,6.141314983E0,3.208328187E-1,8.188419938E-1
5.323945028E1,4.577853203E0,1.141829681E1,1.860351562E0
5.333951772E1,-6.579467297E0,7.745479107E0,9.294574738E0
5.343957580E1,-2.332023621E0,3.936187744E0,2.336812258E0
5.353965412E1,-5.782173634E0,3.960130453E0,3.847599506E0
5.363970653E1,-4.211529255E0,1.415255833E1,1.846464729E1
5.373978128E1,-1.245022893E0,6.103006363E0,7.132544518E0
5.383984713E1,6.074275017E0,-1.079817891E0,9.146129608E0
5.393991454E1,3.088614464E0,3.481275558E0,1.781101036E1
5.403999692E1,5.363175869E-1,1.060903168E1,1.504562283E1
5.414004737E1,-3.071854591E0,4.738269806E0,5.080651283E0
5.424011869E1,-5.715134144E0,3.399870157E0,2.224281311E0
5.434018110E1,-1.034087276E1,1.093225861E1,5.054314137E0
5.444024635E1,-3.919427872E0,7.501263142E0,9.979337692E0
5.454032046E1,2.818061352E0,9.337671846E-2,1.266810799E1
5.464039075E1,7.419857502E0,2.897072434E-1,3.644086361E0
5.474044773E1,1.091789365E0,9.366402626E0,1.222516727E1
5.484052634E1,-5.145296574E0,7.539571285E0,6.311308384E0
5.494058942E1,-1.240234375E0,5.573871613E0,2.178790122E-1
5.504065057E1,-7.802941799E0,6.921848297E0,5.983292580E0
5.514072075E1,5.032765865E0,1.291711235E1,8.540378571E0
5.524078403E1,-2.463708878E0,3.390293121E0,8.983319283E0
5.534085722E1,6.672843933E0,-1.869928598E0,5.042342663E0
5.544280826E1,3.921822071E0,8.925856590E0,9.227535248E0
5.554287567E1,-2.257801056E0,1.194743156E1,1.023313046E1
5.564293845E1,-3.811685562E0,3.608172178E0,9.601042271E-1
5.574300877E1,-5.315289974E0,3.507612705E0,-1.747820616E0
5.584307831E1,-4.304905891E0,1.701611137E1,2.912156487E1
5.594315042E1,-1.101366431E-1,6.244268894E0,3.677606106E0
5.604321134E1,5.863578796E0,-4.503631115E0,4.908263206E0
5.614327838E1,4.019987583E0,4.975303173E0,1.083888245E1
5.624334553E1,-7.455771923E0,7.822095871E0,2.517101097E1
5.634341391E1,-3.016786277E-1,7.192401409E0,-7.901106775E-2
5.644347972E1,-2.468497276E0,4.513207912E0,5.856396198E0
5.654354890E1,-8.504464149E0,9.160495758E0,1.588361931E1
5.664361088E1,-2.729473412E-1,9.567522049E0,9.287391663E0
5.674368479E1,4.245049000E0,-2.202732861E-1,3.208328247E0
5.684374867E1,6.469330311E0,8.379961550E-2,2.746233225E0
5.694381572E1,2.018373728E0,1.001764584E1,2.111750364E0
5.704388708E1,-1.975276709E0,7.395915031E0,9.811738014E0
5.714395086E1,-5.894704342E0,3.677606106E0,5.700768471E0
5.724401857E1,-6.275394440E0,5.813299179E0,2.808484316E0
5.734408969E1,4.886714935E0,1.415495300E1,1.389158249E1
5.744415713E1,-1.503604531E0,4.075055599E0,5.004034519E0
5.754422511E1,6.067092419E0,-2.432583094E0,1.047495270E1
5.764428899E1,5.071074009E0,4.702355862E0,1.370722294E1
5.774435814E1,-1.391073704E0,9.912297249E0,1.628825188E1
5.784442833E1,-4.381523132E0,5.358386993E0,4.213923454E0
5.794449951E1,-5.102199554E0,3.011997700E0,9.888355136E-1
5.804455482E1,-6.531581879E0,1.231136131E1,1.855084038E1
5.814462643E1,-2.351177931E0,5.004034519E0,1.203362560E1
5.824469391E1,4.862771988E0,-1.369525194E0,5.631334305E0
5.834476183E1,4.910657406E0,3.191568375E0,6.778192043E0
5.844482537E1,-9.170072675E-1,9.316123009E0,1.922123909E1
5.854488875E1,-5.889915824E-1,6.605803967E0,3.476486921E0
5.864495553E1,-2.705530643E0,3.656057596E0,2.557085514E0
5.874503198E1,-6.205960274E0,7.843644142E0,1.155477047E1
5.884509307E1,1.604164094E-1,7.834067345E0,9.136552811E0
5.894516248E1,2.233858347E0,1.130097747E0,4.166038036E0
5.904523470E1,6.182017326E0,-5.267404318E-1,8.619389534E0
5.914529201E1,5.511620522E0,8.806142807E0,8.475732803E0
5.924535926E1,-2.554691315E0,7.345634937E0,9.763853073E0
5.934542654E1,-5.217124939E0,3.351984739E0,2.348783493E0
5.944549382E1,-5.372752666E0,4.024775982E0,3.179596901E0
5.954556113E1,4.412648678E0,1.502886295E1,1.634092522E1
5.964562211E1,-7.565908432E-1,4.300117493E0,3.945764780E0
5.974570009E1,7.154093266E0,-3.505218267E0,9.287391663E0
5.984576621E1,5.947378635E0,4.781366825E0,1.881660652E1
5.994583005E1,-3.756617069E0,9.294574738E0,1.890998268E1
6.004589813E1,-3.541132450E0,5.281770229E0,2.059076309E0
6.014596252E1,-2.090201855E0,3.888302326E0,1.410227895E0
6.024603900E1,-8.420664787E0,1.435367775E1,2.250618362E1
6.034610307E1,2.394274808E-3,8.238699913E0,5.719922543E0
6.044617099E1,6.907482624E0,-1.817254543E0,5.686402798E0
6.054623364E1,6.768614769E0,1.848380208E0,1.011341667E1
6.064629356E1,-1.537124395E0,1.222037888E1,6.004841328E0
6.074637207E1,-2.195549965E0,5.949772835E0,7.125361919E0
6.084643222E1,-3.402264595E0,3.826051235E0,1.759791970E0
6.094650637E1,-5.918647289E0,1.027862167E1,1.539518738E1
6.104657438E1,5.030371189E0,1.037439251E1,4.824463844E0
6.114663543E1,1.573038578E0,3.519583941E-1,5.296135902E0
6.124670924E1,7.836461544E0,-2.609759569E0,3.091008663E0
6.134678806E1,1.958516836E0,1.057072353E1,6.895511627E0
6.144684397E1,-2.375120640E0,8.995290756E0,9.371191978E0
6.154690395E1,-3.134105682E0,4.853195190E0,3.225088120E0
6.164697370E1,-7.321692467E0,6.861991405E0,1.016130257E1
6.174703362E1,4.501236439E0,1.213179016E1,1.455719090E1
6.184710414E1,-2.451737404E0,3.464515686E0,4.582642078E0
6.194717282E1,6.993676662E0,-2.942563772E0,7.225921154E0
6.204724423E1,3.775771379E0,6.737489223E0,1.416213512E1
6.214730998E1,-3.895485163E0,9.122186661E0,1.816057396E1
6.224737513E1,-4.994457245E0,4.055901527E0,2.157241583E0
6.234745378E1,-4.259414673E0,3.596200705E0,-4.956148863E-1
6.244751932E1,-6.103006363E0,1.541194725E1,1.667851830E1
6.254757477E1,-3.495641351E-1,8.458972931E0,7.534782887E0
6.264763462E1,5.214730740E0,-1.400650740E0,7.719141960E0
6.274791688E1,6.699181080E0,1.867534399E0,9.624984860E-1
6.284798436E1,-4.568276405E0,1.147815323E1,1.574714565E1
6.294805147E1,-5.889915824E-1,7.400703430E0,1.802888989E0
6.304812022E1,-3.787742853E0,2.636096478E0,4.189980924E-1
6.314818463E1,-1.044861507E1,1.053959751E1,1.483971500E1
6.324825495E1,3.866753817E0,1.029777622E1,6.612987041E0
6.334832763E1,3.150865555E0,2.250618339E-1,6.715940952E0
6.344839107E1,7.872375488E0,-1.273754239E0,-1.180377483E0
6.354845796E1,-2.011190802E-1,1.064733982E1,7.051139355E0
6.364851474E1,-2.535537004E0,8.885153770E0,1.200249958E1
6.374858582E1,-4.048718929E0,3.804502726E0,1.398256540E0
6.384866860E1,-5.901887417E0,5.324867249E0,3.962524891E0
6.394872744E1,2.832427025E0,1.288838100E1,2.042077065E1
6.404878939E1,-7.494080067E-1,5.140508175E0,3.421418667E0
6.414886534E1,5.779779434E0,-4.872349262E0,8.248276711E0
6.424892328E1,3.136499882E0,4.462928295E0,1.298415184E1
6.434899520E1,-2.437371731E0,1.071198559E1,2.220689964E1
6.444906367E1,-3.773377180E0,5.106987953E0,2.439765930E0
6.454912545E1,-3.598595142E0,3.098191500E0,-1.359948039E0
6.464919210E1,-1.041030693E1,1.251247978E1,2.006162834E1
6.474926151E1,5.985686928E-2,1.012778282E1,7.671256542E0
6.484932623E1,2.825244188E0,-1.091789365E0,6.814105988E0
6.494939464E1,8.640937805E0,-7.494080067E-1,-3.682394743E0
6.504946332E1,1.223474383E0,1.239276600E1,9.059935570E0
6.514953530E1,-2.988054991E0,8.803748131E0,7.213950157E0
6.524959508E1,-2.248224020E0,3.493247032E0,-1.939362586E-1
6.534967204E1,-7.012830734E0,4.122941017E0,4.877137661E0
6.544972962E1,3.541132450E0,1.259867382E1,1.770326805E1
6.554980163E1,3.782954216E-1,4.987274647E0,4.668835640E0
6.564985901E1,6.720729351E0,-2.839609861E0,8.664880753E0
6.574992922E1,2.882706881E0,2.640885115E0,7.417463303E0
6.585000470E1,1.568249941E0,9.538790703E0,2.680630112E1
6.595006502E1,-2.094990492E0,5.959350109E0,1.946545362E0
6.605013597E1,-5.686402798E0,3.715914488E0,2.513988614E-1
6.615020668E1,-8.363202095E0,1.221559048E1,1.673358727E1
6.625027350E1,1.312062621E0,8.008849144E0,5.868367672E0
6.635033518E1,4.008016109E0,-1.400650740E0,7.204372883E0
6.645040609E1,7.956175327E0,-2.633702382E-2,7.302538157E-1
6.655046981E1,-6.225114465E-1,1.109746361E1,9.098244667E0
6.665053685E1,-7.110996246E-1,9.043175697E0,7.642525196E0
6.675060213E1,-3.363956213E0,4.441379547E0,3.919427872E0
6.685067378E1,-2.542719841E0,5.473312378E0,6.684815407E0
6.695073746E1,7.084659100E0,1.096098995E1,1.520603943E1
6.705080531E1,7.422251701E-1,3.785348415E0,4.853195190E0
6.715087009E1,7.158881664E0,-4.235472202E0,7.937020779E0
6.725094791E1,3.272973776E0,4.704750061E0,7.151699066E0
6.735100889E1,-5.485283375E0,7.721536160E0,1.774875832E1
6.745107167E1,-5.178816319E0,4.388705730E0,1.580221415E0
6.755114475E1,-3.782954216E0,3.684788942E0,2.849186957E-1
6.765120983E1,-6.835654736E0,1.738004112E1,2.642321587E1
6.775127228E1,-1.817254543E0,6.241874218E0,7.735901833E0
6.785134623E1,5.722316742E0,-5.233884811E0,7.331269264E0
6.795142938E1,7.221132755E0,4.743058205E0,3.838022470E0
6.805148186E1,-2.940169573E0,6.919454098E0,3.097952080E1
6.815154677E1,-3.639297724E0,6.541158676E0,2.394274771E-1
6.825161075E1,-1.987248063E0,3.371139050E0,3.639297783E-1
6.835167600E1,-9.500482559E0,1.400890160E1,2.010472488E1
6.845174731E1,1.970488191E0,7.872375488E0,7.113390446E0
6.855181286E1,4.783761024E0,-8.834874034E-1,4.568276405E0
6.865187894E1,7.676044941E0,-1.956122518E0,1.075029373E0
6.875194805E1,1.280937076E0,1.304879761E1,1.110943508E1
6.885201663E1,-8.260248303E-1,5.952167034E0,1.061142635E1
6.895208861E1,-2.351177931E0,4.666441441E0,-2.648067951E0
6.905215459E1,-8.039975166E0,6.347222328E0,9.419076920E0
6.915221450E1,3.701548815E0,1.257712555E1,9.474145889E0
6.925229478E1,1.070240855E0,1.376708031E0,4.975303173E0
6.935235153E1,8.552350044E0,-2.940169573E0,5.583448887E0
6.945241264E1,2.810878515E0,6.823683262E0,1.238558388E1
6.955248579E1,-5.992869854E0,9.773429871E0,1.870646858E1
6.965255121E1,-2.403851986E0,4.925023079E0,2.013585091E0
6.975262415E1,-2.073441982E0,3.727885962E0,-9.960182905E-1
6.985269043E1,-1.050607777E1,1.778946114E1,2.106482887E1
6.995275219E1,7.901106775E-2,7.058321953E0,6.368771076E0
7.005281704E1,5.995264053E0,-2.758204460E0,5.154873848E0
7.015288355E1,6.411868095E0,1.268965602E0,4.697566986E0
7.025295116E1,-2.662433624E0,1.116210938E1,2.451498032E1
7.035302657E1,-3.699154615E0,6.105400562E0,2.657644987E0
7.045308675E1,-2.346389294E0,3.189173937E0,-1.675992459E-2
7.055315770E1,-1.233530426E1,1.023791885E1,7.345634937E0
7.065321598E1,6.988888264E0,1.104478931E1,8.107014656E0
7.075328980E1,4.652075768E0,6.105400920E-1,5.276981831E0
7.085335818E1,7.721536160E0,-1.254600048E0,3.124528646E0
7.095342633E1,1.477267504E0,1.096098995E1,9.454991341E0
7.105349194E1,-1.486844659E0,8.945011139E0,1.091310501E1
7.115356916E1,-3.253819466E0,3.703943014E0,9.361614585E-1
7.125362257E1,-6.167652130E0,2.267378330E0,-1.197137386E-1
7.135368962E1,-1.039115238E1,1.629782867E1,3.019898796E1
7.145375510E1,-3.356773376E0,6.804529190E0,1.068804264E1
7.155382408E1,8.822902679E0,-3.550709486E0,4.573064804E0
7.165388369E1,4.314483166E0,8.044763207E-1,8.715160489E-1
7.175396537E1,2.533142805E0,1.286683273E1,2.569296265E1
7.185403039E1,-5.779779434E0,4.585036278E0,1.764580488E0
7.195409257E1,-5.528380394E0,8.140534163E-1,3.591412306E-2
7.205416149E1,-9.943423271E0,1.271599388E1,9.428654671E0
7.215422617E1,7.058321953E0,9.593858719E0,5.952167034E0
7.225429751E1,1.539518714E0,-6.608198285E-1,4.879531860E0
7.235436586E1,1.029538155E1,-1.865140080E0,6.320885420E-1
7.245443011E1,6.320885420E-1,1.256515408E1,1.149970150E1
7.255449922E1,-2.384697676E0,9.091061592E0,8.983319283E0
7.265455454E1,-2.592999697E0,3.579440832E0,8.595446348E-1
7.275463062E1,-1.048213482E1,6.993676662E0,-1.283331275E0
7.285470050E1,1.632895470E0,1.261303997E1,1.525392437E1
7.295476378E1,-1.204320192E0,2.545114040E0,5.466129303E0
7.305483073E1,1.205277920E1,-2.595393896E0,6.138920784E0
7.315490207E1,2.911438227E0,4.637710094E0,2.337051582E1
7.325496649E1,-3.943370581E0,1.030016994E1,1.357553864E1
7.335503123E1,-5.672037125E0,3.292127848E0,4.963331699E0
7.345510688E1,-2.971295118E0,2.631308079E0,-1.012778282E0
7.355516980E1,-8.109408379E0,1.844070435E1,2.519016457E1
7.365522571E1,-1.125309110E0,6.926637173E0,3.689577579E0
7.375530249E1,8.118986130E0,-4.146883965E0,6.069486618E0
7.385537578E1,4.745452881E0,1.494027495E0,1.110464668E1
7.395543426E1,5.865973234E-1,1.156434727E1,2.415823364E1
7.405550161E1,-4.134912491E0,6.574678421E0,1.886688590E0
7.415558026E1,-2.592999697E0,1.841197371E0,-1.750214934E0
7.425565194E1,-1.363778973E1,1.583094501E1,1.745426369E1
7.435570155E1,2.973689318E0,9.960183144E0,4.436591148E0
7.445577433E1,9.529213905E-1,-1.256994247E0,5.722316742E0
7.455584278E1,9.411893845E0,-1.003201127E0,-5.154873848E0
7.465590423E1,-1.960911036E0,1.554363251E1,1.326667690E1
7.475597018E1,-1.829225898E0,9.150918007E0,4.728692532E0
7.485604152E1,-3.409447432E0,1.886688590E0,1.616135478E0
7.495610770E1,-6.833260536E0,6.035966873E0,-1.889082789E0
7.505618085E1,9.103033066E0,1.509590244E1,1.097774982E1
7.515624040E1,-5.794144869E-1,8.308133483E-1,6.385530949E0
7.525631594E1,8.150111198E0,-3.529160976E0,4.956148624E0
7.535637932E1,5.408666611E0,6.974522591E0,1.231375504E1
7.545645314E1,-2.080624819E0,1.210784817E1,1.614220047E1
7.555650965E1,-3.909850836E0,3.806896925E0,-2.035133541E-1
7.565656737E1,-4.597007751E0,3.035940409E0,-1.158828974E0
7.575663932E1,-1.059466648E1,2.064822578E1,2.797949600E1
7.585670833E1,-2.513988495E0,6.960156918E0,4.819674969E0
7.595677611E1,5.549929142E0,-5.071074009E0,7.958569527E0
7.605684369E1,5.549929142E0,2.006402254E0,1.489238977E0
7.615692144E1,1.297696948E0,1.701371765E1,2.134735489E1
7.625697949E1,-2.004008055E0,7.795758724E0,1.757397652E0
7.635704487E1,-5.018400192E0,1.290514112E0,7.278595567E-1
7.645712175E1,-9.146129608E0,9.871595383E0,9.148524284E0
7.655718676E1,6.572284222E0,1.324033928E1,7.005648136E0
7.665724782E1,3.790137053E0,8.619388938E-2,4.783761024E0
7.675731893E1,9.198803902E0,-3.397475958E0,1.144463301E0
7.685737898E1,3.478881359E0,1.215333939E1,8.425453186E0
7.695744933E1,-4.077449799E0,9.375980377E0,9.385557175E0
7.705751411E1,-5.741470814E0,2.494834423E0,-1.843591630E-1
7.715758659E1,-5.164450645E0,4.910657406E0,1.233051538E0
7.725777152E1,5.937801600E-1,1.490914917E1,1.644388008E1
7.735784326E1,5.171633363E-1,4.216318130E0,2.849187136E0
7.745790611E1,6.263422966E0,-4.896292210E0,1.154519272E1
7.755797252E1,6.543552876E0,5.111776829E0,1.151646137E1
7.765804080E1,-3.395081758E0,1.144702816E1,2.057879257E1
7.775811358E1,-5.061496735E0,4.994457245E0,1.383890867E0
7.785817532E1,-3.390293121E0,3.368744612E0,-3.914639235E0
7.795824210E1,-1.236403465E1,1.820845985E1,1.720046997E1
7.805831002E1,9.337671995E-1,7.795758724E0,5.727105141E0
7.815838310E1,4.211529255E0,-8.858816624E-1,9.177255630E0
7.825844958E1,9.780612946E0,1.051086664E0,-7.518022656E-1
7.835850969E1,-1.103760719E0,1.350849819E1,2.006162834E1
7.845857707E1,4.716721475E-1,8.358413696E0,2.561874151E0
7.855864442E1,-3.033546209E0,3.794925690E0,5.698373914E-1
7.865870617E1,-4.697566986E0,9.785401344E0,8.523618698E0
7.875877572E1,3.000026226E0,1.169842625E1,1.411185551E1
7.885884743E1,2.327235222E0,1.336005330E0,4.063084126E0
7.895891242E1,8.777411461E0,-4.197163582E0,5.138113976E0
7.905898000E1,5.925830364E0,5.561900616E0,1.332892799E1
7.915904901E1,-1.046298146E0,1.172955227E1,1.703526497E1
7.925911392E1,-5.025582790E0,4.199557781E0,1.551490068E0
7.935918070E1,-5.279376030E0,4.465322495E0,4.285751820E0
7.945925832E1,-6.105400920E-1,1.717413330E1,2.726121330E1
7.955931523E1,4.333637357E-1,6.277788639E0,5.178816319E0
7.965939184E1,9.273026466E0,-5.042342663E0,6.141314983E0
7.975944729E1,5.411061287E0,2.197944164E0,6.038361073E0
7.985951780E1,-3.493247032E0,1.614459419E1,1.927630615E1
7.995958412E1,-2.439765930E0,6.028783798E0,9.696813226E-1
8.005965076E1,-3.430995703E0,1.611346960E0,9.624984860E-1
8.015971761E1,-1.162659836E1,1.392749691E1,1.494506359E1
8.025978459E1,4.285751820E0,1.132013130E1,5.142902374E0
8.035985137E1,3.136499882E0,7.661679387E-2,7.225921154E0
8.045992558E1,9.158101082E0,-1.189954638E0,4.039141655E0
8.055998719E1,-2.545114040E0,1.194024849E1,8.267431259E0
8.066004894E1,-1.089395046E0,8.806142807E0,1.144702816E1
8.076012472E1,-4.711932659E0,2.403851986E0,1.340793848E0
8.086018864E1,-6.694392204E0,6.086246490E0,-1.755003452E0
8.096025422E1,1.326428294E0,1.598417854E1,1.937447166E1
8.106032380E1,-1.515576005E0,3.816473961E0,5.387118340E0
8.116038918E1,9.672870636E0,-3.622537851E0,6.929031372E0
8.126045506E1,5.164450645E0,4.891503334E0,1.153801060E1
8.136052751E1,-5.842030525E0,1.116450310E1,2.609998894E1
8.146059576E1,-4.237866402E0,3.960130453E0,-1.666415215E0
8.156065634E1,-5.310501575E0,2.128510237E0,-3.761405706E0
8.166072912E1,-7.149304390E0,2.035372925E1,2.869059563E1
8.176078814E1,-1.199531674E0,6.385530949E0,1.656838179E0
8.186085986E1,9.069513321E0,-2.736656189E0,6.773403645E0
8.196093420E1,7.750267506E0,2.650462151E0,-3.004814863E0
8.206099882E1,-2.063864946E0,1.620205688E1,3.136021233E1
8.216106033E1,-2.765387297E0,4.446168423E0,2.540325642E0
8.226112851E1,-4.834040642E0,9.433442950E-1,-9.960182905E-1
8.236119617E1,-1.203362560E1,1.061382008E1,6.007235527E0
8.246126661E1,2.628913641E0,1.297218132E1,8.992896080E0
8.256133483E1,2.006402254E0,9.888355136E-1,6.409473896E0
8.266139154E1,9.991309166E0,-6.751855016E-1,-2.154847234E-2
8.276146746E1,5.035160065E0,1.466014481E1,1.779903984E1
8.286154088E1,-3.270579338E0,9.126976013E0,8.238699913E0
8.296159656E1,-4.161249638E0,2.305686712E0,-3.064671755E-1
8.306166714E1,-6.500456333E0,3.313676357E0,-9.792584181E-1
8.316173145E1,2.370332003E0,1.677189445E1,2.125397682E1
8.326180023E1,-2.164424419E0,2.751021862E0,3.514795303E0
8.336186891E1,9.842864037E0,-5.150084972E0,6.335251331E0
8.346193753E1,7.089447498E0,6.124555111E0,1.362102985E1
8.356200255E1,-4.070267200E0,1.136083412E1,2.033457565E1
8.366206703E1,-2.892283916E0,4.223500729E0,-2.425400496E0
8.376213681E1,-7.003253937E0,1.731060743E0,1.283331275E0
8.386220163E1,-8.212362289E0,1.936968231E1,3.306493378E1
8.396227325E1,-5.818088055E-1,6.711152077E0,5.027976990E0
8.406234640E1,6.016812801E0,-2.940169573E0,3.833234072E0
8.416240181E1,8.559532166E0,1.403045058E0,3.900273561E0
8.426247346E1,1.259388566E0,1.455958557E1,2.342319107E1
8.436253667E1,-3.940976381E0,4.970514297E0,8.782199860E0
8.446289042E1,-5.344021320E0,1.137280583E0,-1.611346960E0
8.456295280E1,-1.108309841E1,1.016369629E1,9.431048393E0
8.466301105E1,7.901106775E-2,1.165532970E1,9.617801666E0
8.476308537E1,-6.368771195E-1,-5.219519138E-1,7.992089272E0
8.486315998E1,1.096817303E1,-1.992036581E0,4.709538460E0
8.496322839E1,2.439765930E0,1.017566776E1,6.639324188E0
8.506328837E1,-4.886714935E0,1.102802944E1,1.740158844E1
8.516335555E1,-3.545921087E0,4.831646442E0,-1.149251938E0
8.526342107E1,-4.134912491E0,4.415042877E0,1.233051538E0
8.536348985E1,-8.142929077E0,1.695625496E1,2.674165535E1
8.546355586E1,-1.077423692E-1,5.576265812E0,3.433390141E0
8.556362574E1,7.529994488E0,-1.249811411E0,7.664073467E0
8.566368419E1,5.478100777E0,1.012778282E0,-8.020820618E-1
8.576376668E1,-2.870735407E0,1.554123783E1,1.935292244E1
8.586382966E1,-3.495641351E-1,9.306546211E0,5.655277252E0
8.596389014E1,-5.688796997E0,3.007209063E0,2.207521439E0
8.606395973E1,-7.280989647E0,4.671230316E0,1.187560320E0
8.616402582E1,4.146883965E0,1.347019005E1,2.428034019E1
8.626409170E1,1.747820616E0,4.843617916E0,8.229122162E0
8.636416561E1,6.938608170E0,-2.839609861E0,5.566689014E0
8.646422873E1,6.651295185E0,3.241847992E0,4.774183750E0
8.656429418E1,-2.355966330E0,1.111901188E1,2.423963737E1
8.666435755E1,7.134938836E-1,6.007235527E0,1.314456820E0
8.676442667E1,-3.320859194E0,1.996825218E0,6.991282701E-1
8.686449562E1,-9.634561539E0,1.193306541E1,1.459549904E1
8.696456294E1,1.953728199E0,9.323306084E0,9.447808266E0
8.706462958E1,2.355966330E0,9.744698405E-1,7.484503269E0
8.716469540E1,1.004398251E1,-1.558672905E0,1.596981287E0
8.726478378E1,2.877918243E0,6.519610405E0,1.405918121E1
8.736483073E1,7.182824612E-2,1.186602592E1,6.138920784E0
8.746490041E1,-3.292127848E0,2.995237827E0,-8.092648983E-1
8.756496543E1,-4.549122334E0,3.861965179E0,1.714300752E0
8.766503187E1,-5.257827282E0,1.418128967E1,2.829075050E1
8.776511615E1,-3.416630268E0,6.672843933E0,4.822069645E0
8.786517020E1,7.415069103E0,-1.903448462E0,6.182017326E0
8.796523332E1,9.009655952E0,1.007989645E0,-6.584255695E-1
8.806530200E1,-5.339232683E-1,9.852440834E0,2.957887077E1
8.816537638E1,-8.403904438E-1,7.108602047E0,6.512427330E-1
8.826544579E1,-1.898659945E0,3.682394743E0,1.096577883E0
8.836550500E1,-9.249083519E0,1.086521912E1,1.576390553E1
8.846556888E1,1.728666425E0,9.261054993E0,6.751854897E0
8.856564240E1,1.094183564E0,2.968900800E-1,3.593806505E0
8.866570061E1,1.047734642E1,-2.202732861E-1,3.591412306E-2
8.876577083E1,3.859570980E0,8.423058510E0,1.600572777E1
8.886583654E1,-4.628133297E0,8.758256912E0,8.571503639E0
8.896590446E1,-3.081431627E0,2.566662550E0,-6.847625971E-1
8.906597934E1,-3.292127848E0,2.762993097E0,-2.162030220E0
8.916604575E1,-5.104593754E0,1.543110085E1,2.945676231E1
8.926611166E1,-2.150058746E0,5.554717541E0,5.102199554E0
8.936618004E1,8.095043182E0,-4.031958580E0,7.577879906E0
8.946623976E1,7.158881664E0,6.263422966E0,7.070293427E0
8.956630740E1,-1.553884387E0,8.772623062E0,1.930982590E1
8.966637045E1,-5.707951069E0,4.386311531E0,2.217098475E0
8.976643981E1,-1.764580488E0,2.703136206E0,-1.443747759E0
8.986652696E1,-1.116210938E1,1.972164154E1,3.007209206E1
8.996658594E1,-4.573064744E-1,6.624958515E0,3.541132450E0
9.006665302E1,4.391099930E0,-2.985660791E0,3.237059593E0
9.016671410E1,5.870761871E0,2.336812258E0,5.600208759E0
9.026678528E1,-2.188367128E0,8.126168251E0,2.128749657E1
9.036684370E1,-7.805336118E-1,7.230710030E0,1.336005330E0
9.046692075E1,-1.192348838E0,3.907456398E0,4.455745220E0
9.056698399E1,-5.736682415E0,6.237085819E0,1.158110714E1
9.066704487E1,1.884294271E0,8.968953133E0,8.552350044E0
9.076711366E1,2.614548206E0,9.481328130E-1,4.685595989E0
9.086718091E1,5.013611317E0,-2.552296877E0,6.103006363E0
9.096725075E1,3.102980137E0,7.292961121E0,5.142902374E0
9.106732086E1,5.174027920E0,6.548341751E0,1.341033363E1
9.116739148E1,-4.613767624E0,2.451737404E0,3.466909885E0
9.126745366E1,-4.127729893E0,3.038334846E0,1.127703428E0
9.136752387E1,-4.151672363E0,1.639599419E1,2.465863609E1
9.146758882E1,-1.994430900E0,7.041562080E0,6.459753513E0
9.156765073E1,6.804529190E0,-4.834040642E0,8.236305237E0
9.166771061E1,4.343214512E0,-4.549122229E-2,1.099690437E1
9.176787360E1,-1.532335877E-1,1.204559612E1,2.417020416E1
9.186795295E1,-1.254600048E0,6.019207001E0,1.905842781E0
9.196801816E1,-2.762993097E0,2.391880512E0,5.937801600E-1
9.206807655E1,-1.325949383E1,1.330498505E1,1.527307892E1
9.216814362E1,7.022408009E0,1.133689117E1,9.591464996E0
9.226821160E1,3.739857197E0,-8.667274714E-1,3.814079762E0
9.236828395E1,7.642525196E0,-2.736656189E0,-3.023969173E0
9.246834510E1,3.253819466E0,1.309668350E1,1.091310501E1
9.256841347E1,-2.480468750E0,9.658504486E0,7.474925995E0
9.266847092E1,-1.276148438E0,4.182797909E0,9.361614585E-1
9.276854460E1,-4.917840481E0,7.216344357E0,4.259414673E0
9.286861915E1,3.368744612E0,1.295063210E1,1.587164783E1
9.296868020E1,-1.836408734E0,4.798126698E0,3.383110285E0
9.306874898E1,7.348029613E0,-2.911438227E0,8.231516838E0
9.316881483E1,2.628913641E0,4.635315895E0,1.019482231E1
9.326889111E1,-4.613767624E0,1.071916866E1,1.785171318E1
9.336895453E1,-3.282550812E0,3.830839634E0,-1.324033976E0
9.346901881E1,-7.376760483E0,3.107768774E0,8.178842545E0
9.356908442E1,-9.723150253E0,1.623557663E1,2.522129059E1
9.366914634E1,-2.343995094E0,7.625765324E0,3.620143414E0
9.376922222E1,6.538764477E0,-4.228289127E0,5.676825523E0
9.386928947E1,7.031985283E0,3.237059593E0,1.209108829E0
9.396935145E1,4.082238674E0,1.325709915E1,2.889410782E1
9.406942853E1,-3.435784340E0,5.925830364E0,3.150865555E0
9.416949115E1,-4.649681568E0,8.619389534E-1,-5.578660369E-1
9.426955836E1,-9.349642754E0,1.285964966E1,1.416931820E1
9.436962098E1,2.205127001E0,1.120999432E1,5.133325100E0
9.446968709E1,3.562680960E0,-8.332076073E-1,3.596200705E0
9.456975547E1,9.850046158E0,-2.746233225E0,2.463708878E0
9.466981251E1,4.886714935E0,1.334089947E1,1.828507614E1
9.476989162E1,-4.254626274E0,9.608224869E0,8.454184532E0
9.486997021E1,-2.837215662E0,3.435784340E0,-1.422199249E0
9.497002359E1,-5.135719299E0,4.640104771E0,-1.618529797E0
9.507009370E1,1.098972082E0,1.725074959E1,2.458680725E1
9.517015681E1,-4.573064744E-1,2.202732801E0,-8.332076073E-1
9.527022359E1,4.905869007E0,-6.931425571E0,8.578686714E0
9.537029747E1,5.468523502E0,7.585062504E0,1.198573971E1
9.547036498E1,-4.597007632E-1,1.448296833E1,2.337291145E1
9.557043043E1,-3.991255999E0,3.148471355E0,5.578660369E-1
9.567048468E1,-4.654470444E0,2.657644987E0,-2.035133600E0
9.577055839E1,-1.170321560E1,2.308320427E1,3.144401169E1
9.587063281E1,-2.518777132E0,6.464541912E0,4.364762783E0
9.597069326E1,1.028101635E1,-3.761405706E0,5.858790398E0
9.607076534E1,5.830059052E0,1.019961119E0,-2.073441982E0
9.617082929E1,2.150058746E0,1.742074394E1,2.411513519E1
9.627090000E1,-2.964112282E0,6.208354473E0,4.043930054E0
9.637096238E1,-2.650462151E0,2.097384691E0,-3.615354896E-1
9.647103116E1,-1.241192055E1,1.379341698E1,1.058748341E1
9.657109604E1,7.843644142E0,1.234009266E1,4.307300568E0
9.667115593E1,5.578660369E-1,-4.357580245E-1,4.994457245E0
9.677123604E1,1.063776302E1,-3.294522047E0,2.521171331E0
9.687130552E1,2.207521439E0,8.729525566E0,1.372637749E1
9.697136681E1,1.477267504E0,1.190433407E1,1.219164753E1
9.707143292E1,-3.351984739E0,3.170019865E0,5.363175869E-1
9.717150167E1,-6.239480019E0,2.439765930E0,-1.965699673E0
9.727157229E1,-1.331935120E1,1.735609818E1,3.021096039E1
9.737163330E1,1.826831698E0,4.795732498E0,4.635315895E0
9.747170158E1,7.846038342E0,-3.239453793E0,8.638543129E0
9.757176713E1,6.007235527E0,6.632141471E-1,3.035940409E0
9.767183052E1,1.728666425E0,1.572320271E1,2.224999619E1
9.777190463E1,-3.806896925E0,6.002447128E0,2.264983892E0
9.787197522E1,-2.557085514E0,3.181991339E0,3.375927508E-1
9.797204487E1,-1.003440571E1,1.324991703E1,1.081972790E1
9.807211508E1,6.311308384E0,1.194743156E1,4.795732498E0
9.817218469E1,4.692778587E-1,-3.088614643E-1,4.752635479E0
9.827223970E1,9.749486923E0,-2.760598898E0,1.142069101E0
9.837231105E1,2.798907280E0,1.098014450E1,1.048692322E1
9.847237020E1,1.268965602E-1,1.062818623E1,9.347249031E0
9.857244988E1,-4.968120098E0,2.607365370E0,6.967339516E-1
9.867250056E1,-6.241874218E0,5.367964268E0,-2.571451187E0
9.877257847E1,2.952140808E0,1.764101601E1,2.147664452E1
9.887264665E1,-3.550709486E0,2.138087511E0,8.916279793E0
9.897279292E1,1.000806904E1,-3.359167576E0,5.870761871E0
9.907286430E1,5.561900616E0,4.750241280E0,7.031985283E0
9.917292861E1,-8.092648983E-1,1.348694992E1,2.207042503E1
9.927299696E1,-2.997632027E0,4.506025314E0,-2.478074312E0
9.937306170E1,-4.326454639E0,3.390293121E0,-1.541913033E0
9.947312855E1,-7.091842175E0,2.050217438E1,3.192526054E1
9.957320200E1,-4.716721475E-1,7.869981289E0,2.566662550E0
9.967325998E1,5.992869854E0,-2.851581335E0,5.904281616E0
9.977333099E1,8.277008057E0,6.320885420E-1,-1.482056141E0
9.987339664E1,4.249837875E0,1.698019600E1,2.270969582E1
9.997346472E1,-1.467690468E0,7.163670063E0,2.152452946E0
1.000735427E2,-5.475706577E0,2.976083517E0,-1.134886265E0
1.001735984E2,-8.135746002E0,1.067128277E1,9.347249031E0
1.002736738E2,4.005621910E0,1.240473747E1,1.412382698E1
1.003737396E2,1.810071707E0,4.333637357E-1,1.081733322E1
1.004738066E2,9.124581337E0,-2.937775135E0,-1.881899953E0
1.005738680E2,4.551516533E0,9.026415825E0,1.384369659E1
1.006739268E2,1.513181686E0,1.113577175E1,9.644139290E0
1.007740029E2,-3.325647593E0,3.155654192E0,9.433442950E-1
1.008740722E2,-8.602629662E0,6.790163517E0,1.398256540E0
1.009741395E2,8.039975166E0,1.658992958E1,1.807438087E1
1.010742028E2,-3.478881359E0,1.805283189E0,5.985687256E0
1.011742688E2,1.037678719E1,-5.466129303E0,6.687209606E0
1.012743388E2,6.232297421E0,4.994457245E0,1.287880421E1
1.013744044E2,7.134938836E-1,1.407115269E1,1.950136757E1
1.014744705E2,-5.559505939E0,4.163643837E0,-1.664021015E0
1.015745458E2,-4.869955063E0,3.454938650E0,-1.125309110E0
1.016745974E2,-1.996346283E1,2.210873413E1,2.769697189E1
1.017746778E2,1.412622094E0,6.318490982E0,5.842030644E-1
1.018747466E2,4.307300568E0,-3.929004908E0,7.218738556E0
1.019748084E2,6.579467297E0,-2.224281311E0,1.915419817E0
1.020748734E2,5.298530102E0,1.570404816E1,2.831469345E1
1.021749410E2,1.762186289E0,7.975329399E0,8.092648983E-1
1.022750132E2,-7.065505028E0,1.182771802E0,4.501236677E-1
1.023750783E2,-1.196658516E1,1.176786041E1,1.357793236E1
1.024751565E2,8.712765694E0,1.336963081E1,3.366350412E0
1.025752182E2,4.453351021E0,-6.955368519E0,8.411087036E0
1.026752675E2,7.968146324E0,-6.368771195E-1,-6.002447128E0
1.027753477E2,1.417410731E0,1.648937035E1,1.553644943E1
1.028754164E2,-1.142069101E0,9.538790703E0,6.435810566E0
1.029754782E2,-4.273780346E0,2.916226625E0,9.960182905E-1
1.030755447E2,-9.507665634E0,5.698374271E0,4.553910732E0
1.031756123E2,6.682421207E0,1.781340408E1,1.959235001E1
1.032756877E2,7.805336118E-1,4.551516533E0,3.797319889E0
1.033757462E2,7.460560322E0,-6.768614769E0,3.694365978E0
1.034758167E2,7.194795609E0,2.944957972E0,1.021637058E1
1.035758957E2,5.348809719E0,1.516773129E1,1.830423164E1
1.036759406E2,-2.585816860E0,3.275367975E0,-1.477267504E0
1.037760205E2,-6.229903221E0,3.153259993E0,-1.170800328E0
1.038760927E2,-1.507674885E1,2.064104271E1,2.626998329E1
1.039761535E2,1.915419847E-2,7.948992252E0,5.619362831E0
1.040762179E2,5.535563469E0,-5.684008598E0,5.358386993E0
1.041762919E2,8.095043182E0,1.005595446E0,-2.767781734E0
1.042763565E2,1.151646137E0,1.859872627E1,3.191328812E1
1.043764264E2,-2.001613855E0,6.976916790E0,1.400650740E0
1.044764852E2,-4.019987583E0,6.560313106E-1,6.703969240E-1
1.045765523E2,-6.519610405E0,8.688823700E0,2.128510237E0
1.046766231E2,2.554691315E0,1.331695652E1,1.416213512E1
1.047766982E2,1.039115310E0,-1.233051538E0,5.475706577E0
1.048767530E2,1.096338463E1,-5.372752666E0,2.308080912E0
1.049768252E2,3.093403101E0,1.171279240E1,1.962586975E1
1.050768879E2,7.948992252E-1,1.281894779E1,9.160495758E0
1.051769550E2,-4.556304932E0,1.731060743E0,-7.494080067E-1
1.052770315E2,-5.913858891E0,3.100585938E0,-4.994457245E0
1.053770900E2,-5.564294815E0,2.229788208E1,2.967224693E1
1.054771560E2,-2.968900681E0,3.960130453E0,3.442967176E0
1.055772242E2,7.187613010E0,-5.236279011E0,8.219545364E0
1.056772873E2,9.543579102E0,3.605777979E0,2.336812258E0
1.057773680E2,-2.387091875E0,1.391313076E1,2.761077690E1
1.058774290E2,-9.768640995E-1,4.920234680E0,-1.261782765E0
1.059774925E2,-4.125335693E0,3.002420664E0,3.328042030E-1
1.060775614E2,-1.412861538E1,1.771763420E1,2.010472488E1
1.061776255E2,1.790917516E0,9.289786339E0,6.177228928E0
1.062777915E2,5.346415520E0,-2.094990492E0,3.996044636E0
1.063778475E2,9.126976013E0,-2.990449190E0,-2.667222023E0
1.064779173E2,1.321639657E0,1.490675449E1,1.308950043E1
1.065779868E2,-3.565075159E0,9.186832428E0,1.037199879E1
1.066780399E2,-1.759791970E0,1.544307232E0,-1.716695070E0
1.067781139E2,-5.372752666E0,3.826051235E0,-1.934574008E0
1.068781825E2,-4.637710094E0,1.717173958E1,2.463229942E1
1.069782512E2,-2.928198099E0,3.826051235E0,5.265010357E0
1.070783231E2,8.102226257E0,-3.330436230E0,8.734314919E0
1.071783852E2,4.237866402E0,3.246636629E0,7.158881426E-1
1.072784524E2,-1.065452337E0,1.691555214E1,2.786935806E1
1.073785251E2,-1.766974807E0,4.896292210E0,-3.505218267E0
1.074785906E2,-5.066285610E0,3.179596901E0,-1.072635174E0
1.075786526E2,-1.553884315E1,2.082540321E1,2.516382790E1
1.076787110E2,-1.328822494E0,6.100612164E0,2.695953369E0
1.077787852E2,7.927443981E0,-5.293741703E0,9.059935570E0
1.078788533E2,7.661679268E0,9.624984860E-1,-3.047911882E0
1.079789236E2,2.561874151E0,1.883097076E1,2.033936501E1
1.080789914E2,-2.427794695E0,6.550735950E0,4.247443676E0
1.081790580E2,-3.952947617E0,1.929785490E0,-8.140534163E-2
1.082791234E2,-1.236882401E1,1.262740517E1,1.038397026E1
1.083791918E2,1.024510193E1,1.232572651E1,2.964112282E0
1.084792575E2,4.860377908E-1,-1.426987767E0,1.908236980E0
1.085793384E2,1.003201103E1,-3.761405706E0,5.482889414E-1
1.086793821E2,4.582642078E0,1.534251308E1,9.629773140E0
1.087794576E2,-2.454131603E0,1.022834206E1,1.004158878E1
1.088795364E2,-3.962524891E0,2.717501879E0,-2.001613855E0
1.089795937E2,-4.008016109E0,5.870761871E0,-1.829225898E0
1.090796598E2,4.352791786E0,1.884294319E1,2.237928581E1
1.091797279E2,-2.262589693E0,2.365543604E0,3.301704884E0
1.092797968E2,8.267431259E0,-6.220325947E0,7.676044941E0
1.093798839E2,3.811685562E0,4.824463844E0,1.320442581E1
1.094799322E2,-5.794144869E-1,1.154758739E1,2.833145332E1
1.095799963E2,-3.323253393E0,4.699961662E0,-2.250618339E-1
1.096800628E2,-7.750267506E0,3.878725171E-1,1.264177084E0
1.097801324E2,-1.215573311E1,1.983177757E1,3.098431015E1
1.098801997E2,3.320859194E0,7.391126156E0,2.739050388E0
1.099802640E2,5.004034519E0,-5.308107376E0,5.643305779E0
1.100803333E2,7.043956280E0,-1.675992459E-2,-2.150058746E0
1.101803999E2,5.236279011E0,1.834014511E1,3.532752609E1
1.102804695E2,-3.409447432E0,5.612180233E0,1.735849261E0
1.103805387E2,-5.205153465E0,2.990449190E0,-9.122186899E-1
1.104806034E2,-1.078620815E1,1.407115269E1,1.436564922E1
1.105806865E2,7.225921154E0,1.176307201E1,5.542746067E0
1.106807288E2,4.829252243E0,-7.589851022E-1,5.135719299E0
1.107808095E2,1.036002731E1,-3.383110285E0,-5.913859010E-1
1.108808704E2,1.735849261E0,1.377665710E1,1.279739857E1
1.109809398E2,-1.436564922E-1,1.060903168E1,1.206475067E1
1.110810094E2,-4.247443676E0,2.762993097E0,-1.867534369E-1
1.111810696E2,-9.632167816E0,4.115758419E0,-3.368744612E0
1.112811509E2,7.723930359E0,2.038006783E1,1.983417320E1
1.113812033E2,-2.418217659E0,1.189954638E0,6.938608170E0
1.114812705E2,1.097056675E1,-5.284164429E0,1.879505754E0
1.115813398E2,6.881145954E0,7.597033978E0,1.410467243E1
1.116814009E2,5.387118459E-1,1.420283794E1,1.903209114E1
1.117814765E2,-1.441353440E0,3.464515686E0,3.423812985E-1
1.118815421E2,-8.339259148E0,2.581028223E0,5.243461728E-1
1.119816131E2,-9.136552811E0,1.855323601E1,2.960760307E1
1.120816821E2,9.194015265E-1,8.825297356E0,8.116591573E-1
1.121817475E2,8.087860107E0,-4.728692532E0,5.894704342E0
1.122818093E2,6.557918549E0,2.154847234E-2,-6.847625971E-1
1.123818841E2,4.903474808E0,1.823958588E1,3.319901276E1
1.124819422E2,-3.059883118E0,7.168458939E0,3.445361376E0
1.125820084E2,-6.483695984E0,1.898659945E0,1.182771802E0
1.126820937E2,-9.651321411E0,1.256994247E1,8.051946640E0
1.127821446E2,9.603436470E0,1.363060665E1,7.625765324E0
1.128822115E2,9.768640995E-1,-1.771763325E0,6.217931747E0
1.129822802E2,1.039833546E1,-4.486870766E0,-1.046298146E0
1.130823495E2,3.883513689E0,1.197137451E1,1.308710575E1
1.131824113E2,9.984126091E-1,1.401608467E1,1.048692322E1
1.132824850E2,-4.508419514E0,2.399063349E0,5.411061049E-1
1.133825495E2,-7.395915031E0,3.093403101E0,-2.396669149E0
1.134843319E2,3.323253393E0,2.042795181E1,3.027799988E1
1.135844053E2,-2.695953369E0,2.451737404E0,5.705556870E0
1.136844523E2,1.221319580E1,-6.596227169E0,1.206714511E0
1.137845268E2,6.684815407E0,3.826051235E0,1.698019600E1
1.138846068E2,3.038334846E0,1.629064560E1,2.452455711E1
1.139846716E2,-3.945764780E0,4.008016109E0,-1.367130876E0
1.140847291E2,-7.326480865E0,2.150058746E0,-2.085413456E0
1.141847966E2,-1.077663136E1,2.255406952E1,3.069939232E1
1.142848667E2,5.794144869E-1,7.240286827E0,1.173194647E-1
1.143849402E2,9.160495758E0,-4.189980984E0,2.906649590E0
1.144850040E2,8.585869789E0,-1.324033976E0,8.403904438E-1
1.145850671E2,2.880312681E0,1.801931190E1,3.176963234E1
1.146851281E2,-4.630527496E0,5.842030525E0,3.378321648E0
1.147851989E2,-5.573871613E0,1.917814136E0,5.961744189E-1
1.148852678E2,-9.450202942E0,1.371680069E1,9.653716087E0
1.149853336E2,3.909850836E0,1.363778973E1,1.013257122E1
1.150854019E2,2.940169573E0,-2.171607256E0,5.573871613E0
1.151854697E2,8.686429024E0,-3.095797300E0,2.825244367E-1
1.152855510E2,2.332023621E0,1.406397057E1,1.119802284E1
1.153856024E2,-1.553884387E0,8.794171333E0,1.112619495E1
1.154856690E2,-3.849993944E0,2.504411459E0,5.027977005E-2
1.155857376E2,-7.831672668E0,4.438985348E0,-2.810878515E0
1.156857949E2,3.778165579E0,1.999219513E1,2.746233177E1
1.157858676E2,-7.661679387E-2,1.491633177E0,6.802134514E0
1.158859406E2,1.185166073E1,-6.052726746E0,3.440572977E0
1.159860041E2,3.976890564E0,3.193962574E0,1.168166637E1
1.160860719E2,-2.877918243E0,1.471521282E1,2.373444557E1
1.161861413E2,-4.999245644E0,3.351984739E0,-2.334417820E0
1.162862063E2,-5.566689014E0,1.769369125E0,-5.748653889E0
1.163862728E2,-1.026186180E1,2.550142097E1,3.259805298E1
1.164863410E2,-2.624125242E0,6.390319347E0,2.430188894E0
1.165864102E2,9.452596664E0,-5.470917702E0,4.233078003E0
1.166864792E2,7.391126156E0,-3.543526828E-1,2.346389294E-1
1.167865434E2,6.205960274E0,1.789241600E1,2.741684151E1
1.168866091E2,-2.073441982E0,6.948185444E0,4.173221111E0
1.169866759E2,-3.902667999E0,2.315263748E0,-2.030344963E0
1.170867452E2,-1.234248638E1,1.195700836E1,9.993702888E0
1.171868096E2,4.170826912E0,1.253642273E1,8.001666069E0
1.172868767E2,2.648067951E0,-9.936240315E-1,4.003227711E0
1.173869524E2,1.086521912E1,-3.969707727E0,-1.656838179E0
1.174870177E2,6.153286457E0,1.285725594E1,1.430818653E1
1.175870801E2,-3.471698523E0,8.808537483E0,8.818114281E0
1.176871397E2,-6.105400562E0,3.524372578E0,-9.481328130E-1
1.177872198E2,-5.748653889E0,6.306519985E0,5.576265812E0
1.178872832E2,9.275420189E0,1.304640388E1,1.734652138E1
1.179873497E2,-1.460507631E0,2.743839025E0,5.497254848E0
1.180874154E2,4.122941017E0,-4.201952457E0,7.618582249E0
1.181874845E2,5.353598595E0,6.861991405E0,1.057311726E1
1.182875537E2,-4.956148863E-1,8.379961967E0,1.952770615E1
1.183876295E2,-3.311282158E0,3.988861799E0,5.229096413E0
1.184876857E2,-2.727078915E0,2.346389294E0,1.115732074E0
1.185877528E2,3.375927508E-1,1.361863518E1,1.632177162E1
1.186878169E2,-1.793311834E0,8.248276711E0,9.747093201E0
1.187878890E2,3.272973776E0,-2.118933201E0,7.031985283E0
1.188879568E2,8.602629662E0,-1.187560320E0,5.063891411E0
1.189880225E2,-2.073441982E0,9.577098846E0,2.516143417E1
1.190880848E2,5.961744189E-1,8.157294273E0,-7.110996246E-1
1.191881545E2,-2.880312681E0,2.257801056E0,3.395081758E0
1.192882199E2,-9.569916725E0,8.703188896E0,4.644893169E0
1.193882973E2,1.019721603E1,1.832817459E1,1.068085957E1
1.194883632E2,1.556278616E-1,-7.158881426E-1,7.031985283E0
1.195884250E2,9.201197624E0,-7.336058140E0,-4.936994553E0
1.196884856E2,7.841249943E0,1.069283104E1,6.895511627E0
1.197885602E2,-1.115732074E0,1.409270191E1,1.747341728E1
1.198886278E2,-3.122134447E0,2.018373728E0,-3.184385538E0
1.199886994E2,-5.870761871E0,2.243435383E0,-1.628106833E0
1.200887599E2,-1.058508873E1,2.509439468E1,4.094449234E1
1.201888305E2,-1.436564922E0,5.399089813E0,-8.547561169E-1
1.202888913E2,6.850020409E0,-9.785401344E0,5.420638084E0
1.203889591E2,9.153312683E0,2.253012657E0,1.546701550E0
1.204890395E2,4.565882206E0,1.726990509E1,3.149189568E1
1.205890979E2,-2.054287672E0,6.713546753E0,5.794144869E-1
1.206891516E2,-4.537150860E0,7.541965842E-1,-2.681587934E-1
1.207892130E2,-9.859623909E0,9.352037430E0,2.964112282E0
1.208892793E2,6.165257454E0,1.287640953E1,7.862798691E0
1.209893430E2,-6.584255695E-1,-2.427794695E0,4.051113129E0
1.210894132E2,1.111182976E1,-4.740664005E0,-1.216291547E0
1.211894786E2,4.383917332E0,1.281894779E1,2.192437363E1
1.212895497E2,-8.159688950E0,8.794171333E0,1.419326115E1
1.213896207E2,-3.500429869E0,2.944957912E-1,-6.217931747E0
1.214896916E2,-5.085439682E0,1.553884387E0,-1.347976685E0
1.215897446E2,-6.517216206E0,1.984135628E1,3.802826691E1
1.216898109E2,-1.448536277E0,3.780560017E0,2.109356165E0
1.217898839E2,7.637736797E0,-6.193988800E0,3.337619066E0
1.218899453E2,9.742303848E0,2.777358770E0,1.092747021E1
1.219900278E2,3.878725171E-1,1.309907722E1,2.717501831E1
1.220900840E2,-4.704750061E0,3.931399345E0,-6.512427330E-1
1.221901483E2,-4.340820312E0,2.118933201E0,-2.243435383E0
1.222902156E2,-1.641036034E1,1.907518768E1,3.333069992E1
1.223902906E2,-2.762993097E0,4.869955063E0,3.775771379E0
1.224903576E2,5.667248249E0,-4.989668846E0,3.438178539E0
1.225904308E2,9.191620827E0,5.387118459E-1,-3.009603500E0
1.226904820E2,7.637736797E0,1.712145996E1,3.058686066E1
1.227905510E2,-4.869955063E0,6.124555111E0,7.343240738E0
1.228906258E2,-4.630527496E0,1.177983165E0,9.146129489E-1
1.229906958E2,-8.966559410E0,7.937020779E0,4.324060440E0
1.230907580E2,6.718335152E0,1.304400921E1,1.121717739E1
1.231908191E2,1.479661822E0,5.004034638E-1,4.017592907E0
1.232908906E2,1.070719719E1,-4.316877365E0,5.722316742E0
1.233909539E2,3.993650436E0,8.602629662E0,1.595065880E1
1.234910255E2,-2.815667152E0,1.205038548E1,1.081254482E1
1.235910897E2,-4.568276405E0,1.747820616E0,-3.773377180E0
1.236911607E2,-4.331243038E0,2.724684715E0,-3.138894320E0
1.237912221E2,-7.848433018E0,1.991557693E1,3.366110992E1
1.238912938E2,-4.731087208E0,3.323253393E0,2.023162127E0
1.239913620E2,6.715940952E0,-4.180403709E0,5.001639843E0
1.240914321E2,8.382355690E0,4.257020473E0,6.936213970E0
1.241914920E2,-1.259388566E0,1.340793896E1,3.110402489E1
1.242915600E2,-5.765413761E0,5.466129303E0,4.166038036E-1
1.243916247E2,-5.700768471E0,1.189954638E0,-8.523618579E-1
1.244916923E2,-8.578686714E0,1.222756100E1,1.294584370E1
1.245917606E2,5.401484013E0,1.278542709E1,4.072661400E0
1.246918278E2,1.106154919E0,-2.597788095E0,2.825244188E0
1.247918933E2,1.300091267E1,-3.373533249E0,-3.373533249E0
1.248919684E2,4.161249638E0,1.591474438E1,2.566423225E1
1.249920265E2,-6.371165276E0,8.174054146E0,9.766246796E0
1.250920938E2,-4.194769382E0,2.025556564E0,-1.975276709E0
1.251921667E2,-5.087833881E0,3.560286522E0,3.232271075E-1
1.252922298E2,-5.116565228E0,1.753806305E1,3.204976273E1
1.253923048E2,-2.142875910E0,3.296916485E0,5.875550270E0
1.254923627E2,8.621783257E0,-7.276201248E0,4.216318130E0
1.255924295E2,5.734288216E0,-1.221080124E-1,7.577879906E0
1.256924898E2,1.960911036E0,1.517491341E1,3.217905426E1
1.257925710E2,-2.142875910E0,4.422225475E0,1.429382086E0
1.258926369E2,-5.583448887E0,1.168406129E0,-1.161223292E0
1.259927013E2,-1.464099026E1,1.581418514E1,1.964981270E1
1.260927652E2,3.881119490E0,8.703188896E0,3.924216509E0
1.261928477E2,4.905869007E0,-3.797319889E0,6.620169640E0
1.262928985E2,1.044143200E1,-1.508393168E0,-3.670423269E0
1.263929687E2,4.790944099E0,1.548138046E1,2.049259758E1
1.264930384E2,-3.811685562E0,8.870788574E0,6.727912426E0
1.265931048E2,-4.359974384E0,1.546701550E0,-4.046324492E-1
1.266931619E2,-9.203592300E0,3.409447432E0,-2.774964571E0
1.267932472E2,6.277788639E0,1.596741867E1,2.303052902E1
1.268933032E2,-2.027950764E0,9.026415944E-1,6.883540154E0
1.269933699E2,9.905115128E0,-5.111776829E0,3.845205307E0
1.270934500E2,9.280209541E0,3.565075159E0,1.508393097E1
1.271935040E2,-3.541132450E0,1.227065849E1,2.464666557E1
1.272935752E2,-4.905869007E0,3.694365978E0,-2.911438227E0
1.273936384E2,-5.097411156E0,2.734261751E0,-2.269772530E0
1.274937138E2,-1.277824497E1,1.956361961E1,2.760359383E1
1.275937729E2,-1.948939681E0,7.726325035E0,3.263396502E0
1.276938373E2,5.569083214E0,-4.156461239E0,6.404685020E0
1.277939070E2,9.347249031E0,-1.412622094E0,-1.644866824E0
1.278939765E2,4.484476566E0,1.549335194E1,2.331784248E1
1.279945219E2,-4.003227711E0,7.077476501E0,1.006313705E1
1.280945786E2,-4.834040642E0,3.854782581E-1,-1.438959122E0
1.281946497E2,-6.052726746E0,5.073468208E0,-3.213116884E0
1.282947127E2,2.169213057E0,1.462901878E1,2.111032104E1
1.283947873E2,-2.547508478E0,-2.968900800E-1,3.737462997E0
1.284948472E2,1.384130287E1,-4.467716694E0,4.498842239E0
1.285949165E2,6.909877300E0,8.279402733E0,2.599942970E1
1.286949740E2,-4.778972626E0,1.005116558E1,1.132970810E1
1.287950477E2,-3.375927448E0,2.561874151E0,-1.108549237E0
1.288951157E2,-9.119792938E0,-4.189980924E-1,-5.027977005E-2
1.289951931E2,-1.395622826E1,2.306404877E1,2.559479713E1
1.290952516E2,-4.393494129E0,7.012830734E0,4.280963421E0
1.291953196E2,7.958569527E0,-5.760625362E0,2.449343204E0
1.292953836E2,6.426233768E0,1.994430900E0,-6.249057055E-1
1.293954501E2,3.519583941E-1,1.707357407E1,3.059404373E1
1.294955256E2,-3.510006905E0,3.979284763E0,7.637736797E-1
1.295955846E2,-6.028783798E0,-3.974496126E-1,-7.661679387E-2
1.296956474E2,-1.365215492E1,1.361624050E1,1.194503689E1
1.297957215E2,2.379909277E0,1.124112034E1,1.066888809E1
1.298957855E2,3.565075159E0,-1.838803053E0,4.977697372E0
1.299958554E2,1.078620815E1,-1.817254543E0,7.853221297E-1
1.300959216E2,4.788549617E-2,1.359948063E1,2.244872093E1
1.301960071E2,-1.151646137E0,1.045579815E1,4.599401951E0
1.302960599E2,-3.579440832E0,2.015979290E0,-7.948992252E-1
1.303961324E2,-7.831672668E0,2.995237827E0,-3.129317284E0
1.304962014E2,1.072635174E0,1.816536331E1,3.241369247E1
1.305962606E2,-9.840469360E-1,3.229876757E0,4.206740856E0
1.306963169E2,7.740690231E0,-7.826884270E0,4.479688168E0
1.307964036E2,6.799740314E0,4.709538460E0,1.141350842E1
1.308964669E2,-2.226675600E-1,1.455479622E1,2.461793327E1
1.309965250E2,-2.751021862E0,3.136499882E0,-1.680780888E0
1.310965913E2,-4.810098171E0,-3.112557232E-1,6.727912426E-1
1.311966588E2,-1.398256493E1,1.983417320E1,2.256364632E1
1.312967267E2,7.422251701E-1,8.485309601E0,3.711125851E0
1.313967927E2,2.365543604E0,-3.158048391E0,4.127729893E0
1.314968604E2,1.307274055E1,-1.977671027E0,-9.074301720E-1
1.315969278E2,-4.070267081E-1,1.125548553E1,1.934095192E1
1.316969996E2,-1.460507661E-1,8.032792091E0,2.375120640E0
1.317970661E2,-7.508445740E0,1.319245458E0,3.627326250E0
1.318971289E2,-8.059128761E0,5.432609558E0,3.766194344E0
1.319972012E2,4.302511692E0,1.225389862E1,1.829944229E1
1.320972668E2,7.470137477E-1,9.146129489E-1,6.629746914E0
1.321973320E2,1.221319580E1,-5.475706577E0,5.944984436E0
1.322974069E2,8.655303001E0,6.936213970E0,1.648218727E1
1.323974730E2,1.553884387E0,1.162659836E1,1.370004082E1
1.324975395E2,-7.472531796E0,2.882706881E0,1.237840056E0
1.325976004E2,-4.170826912E0,2.710319042E0,-2.145270348E0
1.326976656E2,-1.268726254E1,2.121327400E1,3.190610695E1
1.327977345E2,3.114951611E0,6.735095024E0,2.324840784E0
1.328978036E2,5.344021320E0,-4.046324253E0,2.511594296E0
1.329978783E2,8.528407097E0,-1.941756845E0,-3.555498123E0
1.330979331E2,4.115758419E0,1.692033958E1,3.203779221E1
1.331980058E2,-1.920208454E0,7.180429935E0,8.739103079E-1
1.332980846E2,-5.087833881E0,4.118152559E-1,-1.580221355E-1
1.333981412E2,-7.371972084E0,6.387925148E0,4.046324253E0
1.334982085E2,2.535537004E0,1.541434097E1,1.981262398E1
1.335982828E2,9.361614585E-1,2.147664547E0,3.656057596E0
1.336983356E2,9.426259995E0,-5.777385235E0,5.039948463E0
1.337984123E2,5.300924301E0,6.653689861E0,9.337671280E0
1.338984709E2,-3.495641351E-1,1.335526466E1,1.889561653E1
1.339985453E2,-4.268991947E0,3.948159218E0,-6.177229285E-1
1.340986123E2,-3.787742853E0,1.850774407E0,-2.171607256E0
1.341986750E2,-1.138717079E1,2.105285835E1,3.516710663E1
1.342987422E2,8.691217303E-1,7.235498428E0,8.188419938E-1
1.343988124E2,6.088640690E0,-4.822069645E0,4.613767624E0
1.344988735E2,8.681640625E0,9.050358534E-1,-6.033572555E-1
1.345989413E2,3.593806505E0,1.798339844E1,2.525002289E1
1.346990085E2,-2.806090117E0,6.548341751E0,3.938581944E0
1.347990745E2,-4.781366825E0,4.884320498E-1,-1.664021015E0
1.348991415E2,-8.712765694E0,9.124581337E0,4.886714935E0
1.349992148E2,-2.011190802E-1,1.267050266E1,1.729863548E1
1.350992861E2,1.474873304E0,1.834014535E0,1.786128998E0
1.351993562E2,1.051326084E1,-4.266597748E0,9.783006668E0
1.352996004E2,5.569083214E0,6.840443134E0,1.792593575E1
1.353996680E2,-1.838803053E0,1.160744381E1,1.801691818E1
1.354997314E2,-4.051113129E0,2.700742006E0,-4.836435020E-1
1.355997992E2,-4.446168423E0,5.363175869E-1,-1.733454943E0
1.356998679E2,-1.366412640E1,2.218295670E1,3.217905426E1
1.357999333E2,-1.683175206E0,6.349617004E0,4.836435318E0
1.358999986E2,9.715967178E0,-5.523591995E0,8.535589218E0
1.360000652E2,6.196382999E0,3.088614643E-1,-6.699181080E0
1.361001370E2,5.315290093E-1,1.382454300E1,3.196596336E1
1.362002042E2,-6.148497581E0,5.109382629E0,3.763799906E0
1.363002670E2,-2.966506481E0,1.249811411E0,-1.647261024E0
1.364003344E2,-1.069043732E1,9.435836792E0,2.401457548E0
1.365004046E2,1.927391171E0,1.082691097E1,1.437522602E1
1.366004698E2,2.272166729E0,-1.125309110E0,2.011190891E0
1.367005281E2,1.047495270E1,-4.666441441E0,3.282550812E0
1.368006052E2,1.575432777E0,1.041988373E1,2.028429604E1
1.369006751E2,-3.921822071E0,1.069283104E1,1.175588894E1
1.370007391E2,-4.424619675E0,2.502017260E0,-1.769369125E0
1.371008038E2,-6.067092419E0,2.521171331E0,-2.882706881E0
1.372008719E2,-9.900326729E0,1.954207039E1,3.366589737E1
1.373009435E2,-1.896265626E0,4.611373425E0,5.233884811E0
1.374010226E2,1.232572651E1,-6.682421207E0,4.367157459E0
1.375010836E2,4.702355862E0,2.614548206E0,1.035044956E1
1.376011394E2,1.704723716E0,1.645345688E1,3.107289886E1
1.377012029E2,-3.507612705E0,4.953754425E0,6.608198285E-1
1.378012740E2,-2.870735407E0,1.225868702E0,-3.830839694E-1
1.379013523E2,-1.367609787E1,1.062339687E1,4.963331699E0
1.380014094E2,2.707924843E0,1.343667030E1,1.196658516E1
1.381014748E2,2.454131603E0,-2.324840784E0,4.901080608E0
1.382015419E2,1.087719059E1,-4.422225475E0,-4.692778587E-1
1.383016094E2,-1.750214934E0,1.399693012E1,1.936250114E1
1.384016809E2,1.347976685E0,9.833286285E0,7.352818012E0
1.385017438E2,-7.582668304E0,2.102173328E0,-8.906702399E-1
1.386018111E2,-6.931425571E0,5.044736862E0,2.049499273E0
1.387018738E2,2.473285913E0,1.692512894E1,3.037137604E1
1.388019474E2,-1.034326673E0,2.554691315E0,4.381522834E-1
1.389020120E2,6.117372036E0,-6.708757877E0,1.685569525E0
1.390020792E2,1.325949383E1,1.884294271E0,3.754222870E0
1.391021468E2,1.078860188E1,1.530420494E1,3.262438965E1
1.392022135E2,-3.905062199E0,5.032765865E0,1.539518714E0
1.393022810E2,-4.699961662E0,-1.963305324E-1,-2.226675600E-1
1.394023476E2,-1.102802944E1,7.570696831E0,-1.089395046E0
1.395024211E2,5.693585396E0,1.590037918E1,1.458352757E1
1.396024894E2,2.083019018E-1,-4.668835998E-1,4.982485771E0
1.397025431E2,1.361863518E1,-6.933819771E0,6.129343510E-1
1.398026157E2,2.842004299E0,1.129858303E1,2.317418671E1
1.399026945E2,7.302538157E-1,1.233290958E1,6.320885658E0
1.400027515E2,-9.696812630E0,8.475732803E-1,2.592999697E0
1.401028230E2,-6.217931747E0,2.746233225E0,-3.033546209E0
1.402028900E2,-1.142069101E0,2.466102982E1,4.091097260E1
1.403029669E2,-1.678386688E0,4.783761024E0,-1.573038578E0
1.404030234E2,6.699181080E0,-4.494053841E0,3.378321648E0
1.405030935E2,9.256266594E0,7.733507752E-1,-1.280937076E0
1.406031522E2,1.604164124E0,1.683893394E1,3.208567810E1
1.407032233E2,-2.892283916E0,7.012830734E0,4.446168423E0
1.408032930E2,-3.457332850E0,4.022381604E-1,-9.577099234E-2
1.409033620E2,-1.303203773E1,9.579493523E0,1.429382086E0
1.410034323E2,1.709512234E0,1.332413960E1,1.456197929E1
1.411034982E2,2.197944164E0,-1.187560320E0,2.042316437E0
1.412035625E2,9.929058075E0,-4.355185986E0,1.077423692E0
1.413036336E2,4.597007751E0,1.424593544E1,1.693470573E1
1.414036967E2,-2.992843390E-1,1.212700176E1,9.732727051E0
1.415037640E2,-7.623371124E0,7.039167881E-1,4.309694469E-2
1.416038289E2,-4.178009510E0,2.739050388E0,-3.651269197E0
1.417038884E2,-7.261835575E0,2.246548080E1,3.601468277E1
1.418039633E2,-1.810071707E0,4.925023079E0,3.421418667E0
1.419040397E2,7.688016415E0,-5.808510780E0,4.539545059E0
1.420040984E2,6.981705189E0,4.070267081E-2,4.908263385E-1
1.421041637E2,-4.309694767E-1,1.568249989E1,4.107857132E1
1.422042296E2,-3.799714088E0,1.934574008E0,1.520364523E0
1.423042995E2,-5.346415520E0,-2.755810261E0,-1.091789365E0
1.424043608E2,-1.330737972E1,1.309428883E1,7.786181450E0
1.425044303E2,4.113364220E0,1.529941559E1,1.344145870E1
1.426046881E2,2.949746609E0,-1.362342358E0,5.672037125E0
1.427047669E2,1.044143200E1,-3.979284763E0,-2.305686712E0
1.428048233E2,5.854001999E0,1.669288445E1,1.534969616E1
1.429048897E2,-2.533142805E0,1.022355366E1,8.461367607E0
1.430049576E2,-6.718335152E0,1.149251908E-1,-4.644893110E-1
1.431050251E2,-7.585062504E0,1.675992370E0,-1.007989645E0
1.432050949E2,-8.260248303E-1,2.534579277E1,3.929244232E1
1.433051588E2,-1.103760719E0,5.427821159E0,9.768640995E-1
1.434052255E2,1.113816643E1,-7.036773682E0,1.944151163E0
1.435052929E2,9.148524284E0,-8.858816624E-1,4.199557781E0
1.436053691E2,3.440572977E0,2.033936501E1,3.536583328E1
1.437054200E2,-2.952140808E0,4.173221111E0,1.510787368E0
1.438054936E2,-6.239480019E0,-1.477267504E0,-2.106961727E0
1.439055621E2,-1.145660496E1,1.342469883E1,8.197997093E0
1.440056336E2,1.223474383E0,1.198334503E1,1.177504349E1
1.441056959E2,7.022408009E0,-1.972882390E0,1.836408734E0
1.442057621E2,6.759037971E0,-4.992063046E0,-9.816526622E-2
1.443058347E2,1.030016994E1,1.883576012E1,1.507195950E1
1.444058972E2,-3.102980137E0,1.020918751E1,1.105915546E1
1.445059659E2,-3.091008663E0,6.320885420E-1,-4.316877365E0
1.446060334E2,-7.443800449E0,-6.273000240E-1,-3.732674360E0
1.447061031E2,-5.576265812E0,2.751021767E1,4.191896439E1
1.448061719E2,-1.477267504E0,5.633728504E0,2.298503816E-1
1.449062327E2,8.174054146E0,-7.989695072E0,5.968926907E0
1.450063001E2,7.441406250E0,-1.271359921E0,1.790917516E0
1.451063696E2,7.893924236E0,1.668570137E1,3.783672333E1
1.452064334E2,-2.561874151E0,5.377541065E0,-1.963305354E0
1.453065124E2,-6.076669693E0,1.723877788E-1,2.006402254E0
1.454065677E2,-9.459779739E0,1.565137482E1,1.584531021E1
1.455066409E2,4.204346657E0,1.421480942E1,8.118986130E0
1.456067047E2,1.115732074E0,-1.194743156E0,8.377567291E0
1.457067646E2,1.119802284E1,-3.265790939E0,-3.277762175E0
1.458068358E2,6.694392204E0,1.101845264E1,1.792593575E1
1.459069070E2,-5.631334305E0,1.206475067E1,1.892674255E1
1.460069762E2,-3.378321648E0,2.238646984E0,-2.736656189E0
1.461070473E2,-6.794951916E0,1.620923996E0,-1.843591571E0
1.462071059E2,-1.477985859E1,2.328192902E1,4.007776642E1
1.463071741E2,9.002473354E-1,7.321692467E0,1.146857619E0
1.464072457E2,9.249083519E0,-5.789356709E0,5.437397957E0
1.465073056E2,9.088666916E0,-1.711906433E0,2.099778891E0
1.466073738E2,5.652883053E0,1.823719215E1,2.557803726E1
1.467074349E2,-5.013611317E0,5.590631485E0,7.982511997E0
1.468075077E2,-3.004814863E0,-8.379961550E-2,-9.984126091E-1
1.469075755E2,-1.322597408E1,8.925856590E0,-3.895485163E0
1.470076417E2,4.498842239E0,1.713343048E1,1.317090607E1
1.471077090E2,-2.537931204E-1,7.422251999E-2,6.143709183E0
1.472077788E2,1.131294823E1,-4.506025314E0,1.604164124E0
1.473078432E2,4.295329094E0,7.302538395E0,1.167687798E1
1.474079157E2,1.211503029E0,1.548138046E1,1.948460770E1
1.475079825E2,-3.598595142E0,2.281744003E0,-1.996825218E0
1.476080453E2,-6.957762718E0,-5.027977005E-2,-2.765387297E0
1.477081205E2,-8.293767929E0,2.438808250E1,3.910569000E1
1.478081807E2,-6.703969240E-1,7.388731956E0,-2.106961906E-1
1.479082489E2,7.300143719E0,-6.213143349E0,8.499675751E0
1.480083125E2,8.794171333E0,1.508393139E-1,-2.573845387E0
1.481083803E2,7.652102470E0,1.757397652E1,2.936577988E1
1.482084568E2,-7.096630573E0,5.255433083E0,1.766974807E0
1.483085129E2,-5.355992794E0,1.041509509E0,-2.315263748E0
1.484085915E2,-1.118605232E1,8.499675751E0,6.890722752E0
1.485086490E2,9.469356537E0,1.443268871E1,1.315893459E1
1.486087199E2,1.412622184E-1,-1.987248063E-1,3.507612705E0
1.487087810E2,1.181335163E1,-6.993676662E0,3.385504484E0
1.488088499E2,6.483695984E0,1.091071033E1,1.871365166E1
1.489089166E2,-4.903474808E0,1.220122433E1,1.682935715E1
1.490089935E2,-4.764606953E0,2.305686712E0,4.094209969E-1
1.491090524E2,-5.083045483E0,1.412622184E-1,-4.357580245E-1
1.492091282E2,-9.064723969E0,2.344952774E1,4.126293182E1
1.493091909E2,-1.295302629E0,7.587456703E0,1.438959122E0
1.494092523E2,7.498868465E0,-5.530774593E0,7.254652381E-1
1.495093319E2,9.739910126E0,1.067846537E0,-2.178790122E-1
1.496093995E2,6.184412003E0,1.942235756E1,3.288776016E1
1.497094507E2,-4.465322495E0,5.631334305E0,4.649681568E0
1.498110411E2,-4.743058205E0,1.891477108E-1,8.810931444E-1
1.499111043E2,-1.019961071E1,1.078860188E1,6.644112587E0
1.500111715E2,5.025582790E0,1.333850479E1,1.239516068E1
1.501112381E2,1.601769805E0,-2.202732861E-1,3.241847992E0
1.502113126E2,7.999272346E0,-3.033546209E0,4.168432236E0
1.503113692E2,1.168406129E0,1.088916206E1,1.115732098E1
1.504114392E2,-5.751048088E0,7.563514233E0,1.289077568E1
1.505115031E2,-2.071047783E0,3.122134447E0,6.720729351E0
1.506115763E2,-4.551516533E0,2.717501879E0,2.468497276E0
1.507116392E2,9.696813226E-1,1.178222656E1,2.038485527E1
1.508117137E2,-2.243435383E0,6.986494064E0,8.032792091E0
1.509117748E2,5.334444046E0,-2.518777132E0,6.996070862E0
1.510118402E2,5.102199554E0,2.990449190E0,6.636929989E0
1.511119142E2,3.926610649E-1,7.458166122E0,1.878308678E1
1.512119740E2,-2.774964571E0,5.595420361E0,1.977671027E0
1.513120490E2,-2.801301479E0,1.388679445E-1,6.079063892E0
1.514121069E2,-7.860404015E0,1.167208958E1,7.242681503E0
1.515121736E2,1.879505754E0,1.361384678E1,8.978530884E0
1.516122431E2,4.010410309E0,1.482056141E0,-8.858817071E-2
1.517123030E2,8.882759094E0,-3.390293121E0,2.523565531E0
1.518123750E2,4.659258842E0,8.078283310E0,8.638543129E0
1.519124426E2,1.692752242E0,1.511984539E1,1.903927422E1
1.520125147E2,-5.116565228E0,2.490045726E-1,-4.309694767E0
1.521125814E2,-7.637736797E0,2.322446555E-1,-1.939362645E0
1.522126447E2,-7.831672668E0,2.442399788E1,3.644565201E1
1.523127167E2,-2.145270348E0,6.057515144E0,-6.201171875E-1
1.524127884E2,1.114056110E1,-8.265036583E0,1.005356026E1
1.525128474E2,6.526793003E0,2.669616461E0,-2.403851986E0
1.526129124E2,6.512427330E0,2.035372925E1,3.271297836E1
1.527129832E2,-4.249837875E0,4.649681568E0,2.174001455E0
1.528130492E2,-5.427821159E0,-3.830839694E-1,-1.652049571E-1
1.529131198E2,-1.108070374E1,7.778998852E0,5.458946824E-1
1.530131827E2,4.951360226E0,1.498337173E1,1.546940994E1
1.531132479E2,1.855562925E0,-1.146857619E0,3.838022470E0
1.532133232E2,1.136083412E1,-5.384724140E0,7.374366522E-1
1.533134008E2,6.213143349E0,1.262740517E1,2.224041939E1
1.534134496E2,-1.984853864E0,1.200968266E1,1.030735302E1
1.535135161E2,-4.312088966E0,1.527547359E0,-1.589798450E0
1.536135835E2,-6.308914185E0,7.589851022E-1,-1.321639657E0
1.537136458E2,-1.126027489E1,2.494834328E1,3.876330948E1
1.538137186E2,-1.857957244E0,5.827664852E0,5.013611317E0
1.539137840E2,9.548367500E0,-6.359193802E0,4.767001152E0
1.540138527E2,6.840443134E0,4.836435020E-1,-2.231464148E0
1.541139263E2,3.325647593E0,1.677668381E1,3.263157272E1
1.542140010E2,-3.802108288E0,6.112583637E0,2.705530643E0
1.543140563E2,-4.331243038E0,-8.068706393E-1,-1.936968327E0
1.544141192E2,-1.167927265E1,1.326188850E1,1.211263657E1
1.545141893E2,7.460560322E0,1.324991703E1,9.311334610E0
1.546142594E2,3.196356773E0,-2.506805658E0,2.741444588E0
1.547143209E2,1.145421028E1,-5.755836487E0,2.760598898E0
1.548143934E2,7.072687626E0,1.211742496E1,8.753468513E0
1.549144559E2,2.633702278E0,1.290753555E1,1.117886925E1
1.550145220E2,-3.775771379E0,1.101366401E0,4.668835998E-1
1.551145916E2,-8.085466385E0,1.290514112E0,-2.990449190E0
1.552146561E2,-8.209968567E0,2.461553955E1,3.396997070E1
1.553147308E2,-8.140534163E-2,6.658478260E0,4.106181145E0
1.554147940E2,7.582668304E0,-5.174027920E0,3.134105682E0
1.555148657E2,6.557918549E0,-9.529213905E-1,-2.832427025E0
1.556149296E2,1.319724274E1,1.855084038E1,4.017353821E1
1.557149973E2,-3.644086361E0,6.610592842E0,3.158048391E0
1.558150646E2,-6.014418125E0,-3.471698463E-1,1.125309110E0
1.559151335E2,-1.225389862E1,5.913858891E0,9.577099234E-3
1.560152019E2,1.455000782E1,1.642951393E1,1.716455650E1
1.561152618E2,2.308080912E0,2.178790122E-1,4.304905891E0
1.562153321E2,9.126976013E0,-6.076669693E0,3.976890564E0
1.563153947E2,6.541158676E0,5.250644684E0,6.301731110E0
1.564154678E2,4.022381783E0,1.602727509E1,2.138326836E1
1.565155302E2,-3.292127848E0,3.701548815E0,-9.194015265E-1
1.566155997E2,-6.830865860E0,2.123721838E0,1.249811411E0
1.567156679E2,-1.407594204E1,2.145030785E1,3.737462997E1
1.568157314E2,2.078230619E0,7.058321953E0,4.312088966E0
1.569157996E2,4.982485771E0,-4.180403709E0,2.810878515E0
1.570159879E2,1.192588329E1,-2.310475111E0,-3.122134447E0
1.571160485E2,8.080677032E0,1.522519398E1,3.440812302E1
1.572161177E2,-3.184385538E0,8.933039665E0,5.291347504E0
1.573161905E2,-5.375146866E0,1.553884387E0,6.273000240E-1
1.574162489E2,-6.450176239E0,4.889109135E0,-3.579440832E0
1.575163236E2,6.596227169E0,1.997303963E1,2.211831093E1
1.576163839E2,-2.930592299E0,2.200338602E0,3.083826065E0
1.577164552E2,1.238318920E1,-8.399115562E0,5.796539307E0
1.578165271E2,8.789382935E0,5.253038883E0,4.115758419E0
1.579165891E2,9.311334610E0,1.890519333E1,2.444315147E1
1.580166523E2,-4.831646442E0,3.799714088E0,1.685569525E0
1.581167188E2,-5.839636326E0,2.257801056E0,2.346389294E-1
1.582167929E2,-1.250769138E1,1.625712585E1,1.931700897E1
1.583168603E2,6.045543671E0,1.316851139E1,9.648927450E-1
1.584169203E2,2.944957972E0,-3.804502726E0,2.715107679E0
1.585169978E2,1.115971470E1,-4.326454639E0,-3.663240373E-1
1.586170550E2,5.490072250E0,1.510787392E1,2.366022301E1
1.587171191E2,-3.280156553E-1,1.094183540E1,7.556331158E0
1.588171880E2,-4.865166187E0,8.571503758E-1,-1.628106833E0
1.589172559E2,-6.921848297E0,3.797319889E0,-3.356773376E0
1.590173307E2,-3.768588543E0,2.220929337E1,4.115279388E1
1.591173901E2,9.098244458E-2,3.543526649E0,4.348002911E0
1.592174579E2,9.493299484E0,-7.039167881E0,1.142069101E0
1.593175312E2,9.502876282E0,4.189980924E-1,1.623318315E0
1.594175927E2,1.814860344E0,1.890758896E1,3.157090759E1
1.595176653E2,-2.423006058E0,5.004034519E0,2.921015322E-1
1.596177301E2,-3.138894320E0,1.063058019E0,-8.667274714E-1
1.597177915E2,-1.103281784E1,1.462183666E1,1.809832382E1
1.598178652E2,1.936968327E0,1.145421028E1,3.512401104E0
1.599179274E2,1.901054144E0,-3.878725171E-1,4.266597748E0
1.600179974E2,1.142787361E1,-2.408640385E0,2.535537004E0
1.601180673E2,3.794925690E0,1.070001411E1,1.131534290E1
1.602181303E2,-2.557085514E0,1.250769138E1,1.083888245E1
1.603181974E2,-7.656890869E0,3.677606106E0,3.201145411E0
1.604182695E2,-4.024775982E0,4.434196949E0,-1.692752242E0
1.605183358E2,-1.927391171E0,2.075118065E1,2.998350334E1
1.606184044E2,2.166818619E0,5.571477413E0,8.260248303E-1
1.607184659E2,8.111803055E0,-3.373533249E0,4.925023079E0
1.608185338E2,8.964164734E0,1.338399649E0,1.197137404E-2
1.609186028E2,-5.698373914E-1,1.638162804E1,2.447906494E1
1.610186656E2,-2.456526041E0,7.860404015E0,5.253038883E0
1.611187345E2,-3.658451796E0,1.963305354E0,-1.283331275E0
1.612188025E2,-1.043424988E1,6.488484859E0,2.075836182E0
1.613188702E2,1.050128937E1,1.930743217E1,1.743989754E1
1.614189357E2,1.359948039E0,5.889915824E-1,1.723877907E0
1.615190010E2,6.859597206E0,-6.543552876E0,2.449343204E0
1.616190684E2,8.571503639E0,6.253845692E0,6.792557716E0
1.617191314E2,2.188367128E0,1.578784847E1,2.933944321E1
1.618192043E2,-3.256213665E0,4.690384388E0,-1.874717116E0
1.619192721E2,-5.197970390E0,2.133298874E0,-1.750214934E0
1.620193480E2,-7.822095871E0,2.072723770E1,3.014631462E1
1.621194110E2,3.280156553E-1,9.711178780E0,2.360754967E0
1.622194757E2,4.438985348E0,-3.442967176E0,2.765387297E0
1.623195449E2,9.253871918E0,-2.535537004E0,-1.546701550E0
1.624196118E2,6.950579643E0,1.840479088E1,2.448146057E1
1.625196782E2,-7.087053657E-1,9.984126091E0,5.351204395E0
1.626197470E2,-5.643305779E0,7.158881426E-1,-9.888355136E-1
1.627198052E2,-9.313729286E0,5.396695614E0,-5.966532707E0
1.628198737E2,1.039115238E1,1.653246689E1,1.763143921E1
1.629199411E2,-6.296942830E-1,1.388679445E-1,9.696813226E-1
1.630200118E2,8.892336845E0,-7.891529560E0,5.039948463E0
1.631200764E2,1.007510853E1,6.136526108E0,1.246459484E1
1.632201436E2,3.282550812E0,1.680062675E1,2.425400352E1
1.633202139E2,-3.117345810E0,3.713520288E0,-3.878725171E-1
1.634202768E2,-6.028783798E0,4.094209969E-1,-8.763045669E-1
1.635203442E2,-1.365933800E1,2.059794617E1,3.081192207E1
1.636204092E2,2.207521439E0,9.732727051E0,2.451737404E0
1.637204868E2,4.508419514E0,-4.482082367E0,2.918621063E0
1.638205533E2,1.031214142E1,-3.062277555E0,-2.827638626E0
1.639206173E2,5.542746067E0,1.745186996E1,2.934423256E1
1.640206874E2,-2.842004299E0,8.107014656E0,3.773377180E0
1.641207537E2,-5.834847927E0,5.770202279E-1,8.356019258E-1
1.642208153E2,-7.221132755E0,5.142902374E0,-4.884320498E-1
1.643208882E2,4.843617916E0,1.545743847E1,2.477835083E1
1.644210498E2,2.825244367E-1,1.534730196E0,1.240234375E0
1.645211144E2,1.002722263E1,-7.383943558E0,3.615355015E0
1.646211856E2,6.802134514E0,6.768614769E0,1.397777653E1
1.647212512E2,3.064671755E0,1.011102295E1,2.123003387E1
1.648213142E2,-7.659285069E0,-7.039167881E-1,3.363956213E0
1.649213818E2,-6.648900986E0,-1.084606528E0,2.516382933E0
1.650214483E2,-1.234966946E1,2.342079544E1,2.991167450E1
1.651215175E2,1.067846537E0,9.852440834E0,8.427846909E0
1.652215852E2,1.005356026E1,-7.312115192E0,3.696760416E0
1.653216514E2,5.877944469E0,-2.695953369E0,-7.419857502E0
1.654217377E2,6.914665699E0,2.100497246E1,2.794118690E1
1.655217878E2,-3.308887720E0,7.034379482E0,5.042342663E0
1.656218499E2,-6.126949310E0,1.292908341E-1,-2.094990492E0
1.657219247E2,-1.056114578E1,4.326454639E0,-8.236305118E-1
1.658219858E2,1.123393726E1,1.584531021E1,1.941996384E1
1.659220580E2,3.471698463E-1,9.050358534E-1,1.630501151E0
1.660221184E2,9.545973778E0,-8.652909279E0,4.982485771E0
1.661221884E2,9.732727051E0,7.156487465E0,1.263698196E1
1.662222554E2,3.708731651E0,1.366412640E1,1.628346252E1
1.663223302E2,-4.498842239E0,1.443747759E0,-2.305686712E0
1.664223951E2,-7.412674904E0,4.501236677E-1,-1.189954638E0
1.665224573E2,-1.363060665E1,2.442399788E1,4.678173447E1
1.666225221E2,4.956148863E-1,4.556304932E0,-3.112557158E-2
1.667225860E2,6.340039730E0,-6.093429565E0,3.794925690E0
1.668226581E2,1.052283764E1,-1.920208454E0,-4.594613552E0
1.669227351E2,6.778192043E0,1.914222717E1,3.591651535E1
1.670227905E2,-1.661626697E0,6.677632332E0,-1.905842781E0
1.671228615E2,-6.059909344E0,8.379961550E-2,1.024749637E0
1.672229259E2,-9.850046158E0,1.320921421E1,1.476070404E1
1.673229930E2,1.184926605E1,1.511505699E1,3.023969173E0
1.674230643E2,-2.944957912E-1,-3.478881359E0,5.166844845E0
1.675231302E2,1.364018345E1,-3.945764780E0,-9.816526771E-1
1.676231918E2,4.240260601E0,1.421480942E1,3.389814377E1
1.677232582E2,3.591412306E-2,9.787795067E0,4.685595989E0
1.678233284E2,-5.411061287E0,1.225868702E0,-9.624984860E-1
1.679234000E2,-6.900300026E0,2.054287672E0,-1.774157643E0
1.680234670E2,8.631361008E0,2.261871338E1,2.932747269E1
1.681235300E2,-1.848380208E0,3.225088120E0,-1.192348838E0
1.682235975E2,8.959376335E0,-6.196382999E0,2.842004299E0
1.683236656E2,9.624984741E0,-5.267404318E-1,9.079090118E0
1.684237347E2,9.919480324E0,1.621163559E1,2.721811676E1
1.685237984E2,-2.583422422E0,4.604190350E0,4.395888329E0
1.686238620E2,-7.925049782E0,-9.696813226E-1,2.320052385E0
1.687239322E2,-1.150688457E1,1.110464668E1,4.237866402E0
1.688239999E2,1.061382008E1,1.547180367E1,1.219164753E1
1.689240684E2,4.992063046E0,-4.209135056E0,9.483722687E0
1.690241338E2,9.282603264E0,-4.968120098E0,-3.773377180E0
1.691242084E2,6.299336910E0,9.835680962E0,8.605023384E0
1.692242732E2,2.825244188E0,1.488760090E1,6.706363678E0
1.693243410E2,-5.530774593E0,1.558672905E0,-2.873129845E-1
1.694244201E2,-6.572284222E0,4.812492430E-1,-2.049499273E0
1.695244728E2,-5.581054688E0,2.536015892E1,4.814647293E1
1.696245352E2,1.793311834E0,8.138139725E0,-2.825244367E-1
1.697246005E2,7.027196407E0,-9.421471596E0,5.810904980E0
1.698246768E2,8.593051910E0,-7.685621977E-1,1.807677507E0
1.699247459E2,5.293741703E0,2.142875862E1,3.417588043E1
1.700248106E2,-2.513988614E-1,7.494080067E0,-1.891477108E0
1.701248760E2,-7.000859737E0,1.364736706E-1,5.717528343E0
1.702249505E2,-1.104957867E1,1.479901218E1,8.391933441E0
1.703250135E2,9.378374100E0,1.247896004E1,1.064733982E1
1.704250723E2,1.106154919E0,-1.819648862E0,4.204346657E0
1.705251515E2,8.870788574E0,-5.375146866E0,1.094183564E0
1.706252043E2,8.348835945E0,1.112858963E1,1.296978664E1
1.707252729E2,-6.440598965E-1,1.229699516E1,1.144702816E1
1.708253494E2,-4.075055599E0,2.782147408E0,1.556278616E-1
1.709254136E2,-5.933012962E0,3.184385538E0,8.308133483E-1
1.710254807E2,-4.103786945E0,2.429949570E1,3.249509811E1
1.711255525E2,-8.140534163E-2,6.062304020E0,1.110943556E0
1.712256185E2,1.012059975E1,-8.389538765E0,7.958569527E0
1.713256768E2,4.699961662E0,3.023969173E0,2.664827824E0
1.714257443E2,5.533169270E0,1.830662537E1,3.077361488E1
1.715258121E2,-4.764606953E0,5.023188591E0,-2.298503816E-1
1.716262584E2,-4.623344421E0,1.237840056E0,1.819648892E-1
1.717263202E2,-1.046298122E1,1.631937790E1,1.563940334E1
1.718263905E2,1.041988373E1,1.397298813E1,5.061496735E0
1.719264597E2,1.740637779E0,-2.624125242E0,3.462121487E0
1.720265260E2,9.426259995E0,-5.487678051E0,-3.447755814E0
1.721266008E2,4.889109135E0,1.856281281E1,1.702329445E1
1.722266610E2,-1.860351562E0,1.008708000E1,8.262641907E0
1.723267312E2,-4.561093330E0,8.356019258E-1,-1.546701550E0
1.724267940E2,-7.228315830E0,3.603383541E0,-2.645673752E0
1.725268657E2,4.278569221E0,2.499622917E1,3.010800552E1
1.726269263E2,-2.729473352E0,2.621730804E0,3.395081758E0
1.727269942E2,1.086521912E1,-6.375953674E0,3.612960577E0
1.728270619E2,6.517216206E0,2.305686712E0,6.081458092E0
1.729271313E2,5.224307537E0,1.852450371E1,2.709600830E1
1.730272024E2,-5.291347504E0,3.471698523E0,-3.136500120E-1
1.731272735E2,-5.140508175E0,7.422251999E-2,1.180377483E0
1.732273308E2,-8.990502357E0,2.045668411E1,2.079906464E1
1.733274127E2,8.427846909E0,1.285246754E1,2.394274808E-2
1.734274738E2,8.858817071E-2,-4.594613552E0,6.806923389E0
1.735275342E2,9.641744614E0,-2.758204460E0,-7.043956280E0
1.736275981E2,5.727105141E0,2.153410721E1,1.894110870E1
1.737276659E2,-1.896265626E0,9.368797302E0,2.897072554E0
1.738277350E2,-4.211529255E0,7.206767201E-1,8.619388938E-2
1.739278007E2,-6.055120945E0,5.784567833E0,1.228263021E0
1.740278700E2,9.699207306E0,1.951812744E1,2.221647644E1
1.741279415E2,5.746259540E-2,1.321639657E0,4.008016109E0
1.742280070E2,1.018763924E1,-7.228315830E0,4.115758419E0
1.743280739E2,7.630553722E0,4.872349262E0,9.514847755E0
1.744281366E2,9.100638390E0,1.789959908E1,1.108549213E1
1.745282042E2,-5.566689014E0,1.295302629E0,-6.775797606E-1
1.746282675E2,-6.677632332E0,-5.650488734E-1,7.470137477E-1
1.747283366E2,-6.871568680E0,2.601618958E1,3.301944351E1
1.748284046E2,2.540325642E0,9.440625191E0,7.122967720E0
1.749284760E2,5.636122704E0,-5.490072250E0,3.414235830E0
1.750285518E2,1.005595398E1,-1.692752242E0,-6.873962879E0
1.751286067E2,3.306493521E0,2.041598129E1,2.078230476E1
1.752286730E2,-5.506832004E-1,1.080775642E1,4.228289127E0
1.753287478E2,-5.655277252E0,-1.221080124E-1,3.878725171E-1
1.754288105E2,-7.508445740E0,2.897072554E0,-3.653663397E0
1.755288764E2,-1.067846537E0,2.253491402E1,3.480078506E1
1.756289495E2,1.735849261E0,2.988054991E0,2.106961727E0
1.757290203E2,8.691217422E0,-7.529994488E0,4.163643837E0
1.758290747E2,8.310527802E0,5.918647289E0,9.440625191E0
1.759291528E2,7.288172722E0,1.807677460E1,2.246308708E1
1.760292170E2,-5.221913338E0,2.906649590E0,-4.597007632E-1
1.761292800E2,-7.132544518E0,-5.506832153E-2,3.646480560E0
1.762293603E2,-1.222037888E1,2.268335915E1,1.908476448E1
1.763294108E2,3.232270956E0,1.015651417E1,6.179623127E0
1.764294860E2,4.510813713E0,-1.927391171E0,1.367130876E0
1.765295509E2,1.018285084E1,-3.457332850E0,-2.188367128E0
1.766296188E2,6.002447128E0,1.830901909E1,3.044799232E1
1.767296841E2,-1.486844659E0,1.010862827E1,3.577046633E0
1.768297473E2,-6.071880817E0,3.567469418E-1,-3.471698463E-1
1.769298253E2,-7.367183685E0,4.764606953E0,-4.101392746E0
1.770298832E2,1.946545362E0,1.977910423E1,2.544156456E1
1.771299520E2,-2.130904645E-1,1.939362645E0,6.392713785E-1
1.772300155E2,1.090592194E1,-7.101418972E0,7.441406250E0
1.773300911E2,8.523618698E0,6.543552876E0,1.037678719E1
1.774301511E2,-7.996878028E-1,1.660668945E1,2.826680756E1
1.775302166E2,-5.355992794E0,2.722290516E0,-1.321639657E0
1.776302888E2,-5.734288216E0,-8.020820618E-1,2.322446555E-1
1.777303479E2,-1.643430138E1,2.004486847E1,1.748060036E1
1.778304293E2,8.181237221E0,1.162899303E1,4.472505569E0
1.779304905E2,5.703162670E0,-3.225088120E0,6.943397045E0
1.780305596E2,6.543552876E0,-3.483669758E0,-1.805283189E0
1.781306279E2,4.101392746E0,1.688681984E1,1.712624741E1
1.782306980E2,2.667222023E0,1.217488766E1,5.351204395E0
1.783307522E2,-5.657671452E0,-5.626545548E-1,1.134886265E0
1.784308220E2,-8.379961967E0,3.215511084E0,-5.221913338E0
1.785308868E2,2.865947008E0,2.381345749E1,3.256453323E1
1.786309599E2,9.313728809E-1,2.288926601E0,1.874717116E0
1.787310225E2,9.148524284E0,-7.929838181E0,3.110162973E0
1.788312537E2,6.507638931E0,4.144489765E0,1.860351562E0
1.789313214E2,6.146103382E0,2.077033424E1,2.757965088E1
1.790313899E2,-4.915446281E0,4.060689926E0,-1.391073704E0
1.791314623E2,-5.827664852E0,2.442160249E-1,-3.974496126E-1
1.792315179E2,-1.119084072E1,2.351177788E1,2.478553200E1
1.793315871E2,2.272166729E0,1.156674194E1,2.035133600E0
1.794316537E2,2.815667152E0,-1.707117915E0,5.327261448E0
1.795317314E2,9.507665634E0,-4.106181145E0,-6.943396926E-1
1.796317837E2,5.365570068E0,1.516773129E1,1.777030754E1
1.797318739E2,1.568249941E0,1.289795876E1,5.114171028E0
1.798319223E2,-7.867587090E0,-8.786988258E-1,-1.520364523E0
1.799319934E2,-7.690410614E0,1.788523316E0,-3.933793545E0
1.800320554E2,1.347976685E0,2.666503906E1,3.304099274E1
1.801321253E2,-2.540325642E0,3.378321648E0,2.327235222E0
1.802321965E2,1.110225201E1,-7.285778046E0,4.369551659E0
1.803322577E2,6.012023926E0,1.996825218E0,2.490045786E0
1.804323253E2,8.729525566E0,2.111511040E1,3.092684746E1
1.805323893E2,-4.357580185E0,3.560286522E0,-1.606558442E0
1.806324541E2,-7.324086666E0,-7.350423932E-1,-8.858817071E-2
1.807325213E2,-1.155237579E1,2.183818054E1,2.210873413E1
1.808325978E2,2.437371731E0,1.229460144E1,2.892283916E0
1.809326639E2,3.459727049E0,-3.852388144E0,7.194795609E0
1.810327311E2,7.666468143E0,-1.441353440E0,-5.889915943E0
1.811327925E2,6.234691620E0,2.088525963E1,2.117257118E1
1.812328589E2,2.921015322E-1,6.895511627E0,3.033546209E0
1.813329280E2,-4.419831276E0,4.608979225E0,7.460560322E0
1.814329966E2,-1.235206413E1,8.832479477E0,3.064671755E0
1.815330607E2,9.392740250E0,1.597699547E1,1.069043732E1
1.816331271E2,6.691998005E0,4.647287369E0,-5.578660369E-1
1.817331982E2,8.595446587E0,-1.410227895E0,6.469330311E0
1.818332673E2,-2.226675600E-1,6.751854897E0,7.051139355E0
1.819333327E2,5.219519138E-1,1.433691788E1,2.427794695E0
1.820333993E2,-5.047131062E0,9.215563774E0,8.691217422E0
1.821334697E2,-6.404685020E0,4.963331699E0,3.727885962E0
1.822335324E2,-1.144463301E0,2.048781013E1,2.436413956E1
1.823336012E2,2.195549965E0,4.620950222E0,6.344828129E0
1.824336671E2,1.051804924E1,-3.541132450E0,8.212362528E-1
1.825337312E2,7.539571285E0,4.822069645E0,9.107821465E0
1.826337964E2,2.729473352E0,1.657795906E1,2.438568878E1
1.827338638E2,-5.250644684E0,5.729499817E0,-5.004034638E-1
1.828339334E2,-4.259414673E0,3.567469358E0,4.774183750E0
1.829340075E2,-9.775823593E0,1.339836216E1,1.313259697E1
1.830340679E2,4.805309772E0,1.418847275E1,7.336058140E0
1.831341414E2,3.555498123E0,2.513988614E-1,1.228263021E0
1.832342020E2,6.601015568E0,-1.802888989E0,2.897072554E0
1.833342701E2,6.366376877E0,1.617093277E1,1.041988373E1
1.834343352E2,-2.056682110E0,1.336244774E1,6.687209606E0
1.835344056E2,-2.729473352E0,4.393494129E0,1.620923996E0
1.836344738E2,-6.775797844E0,4.180403709E0,1.836408734E0
1.837345412E2,-5.897099018E0,2.201535606E1,1.998979950E1
1.838346083E2,1.082212210E0,1.209587669E1,4.539545059E0
1.839346737E2,1.013496494E1,-4.972908974E0,1.620923996E0
1.840347391E2,5.348809719E0,3.160442710E-1,-3.974496126E-1
1.841348089E2,5.559505939E0,2.180466080E1,2.307602119E1
1.842348748E2,-4.419831276E0,9.811738014E0,3.840416908E0
1.843349402E2,-2.609759569E0,4.154066563E0,1.640078187E0
1.844350138E2,-6.967339516E0,5.767807961E0,2.394274712E0
1.845350739E2,1.800494671E0,1.969291115E1,2.006162834E1
1.846351368E2,2.336812258E0,3.945764780E0,6.988888264E0
1.847352105E2,6.861991405E0,-1.290514112E0,2.233858347E0
1.848352778E2,1.659232497E0,6.493273258E0,4.738269806E0
1.849353435E2,-2.162030220E0,1.665696907E1,2.133059502E1
1.850354192E2,-4.501236677E-1,6.517216206E0,-3.246636629E0
1.851354842E2,-7.628159523E0,1.297696948E0,4.271386147E0
1.852355504E2,-2.169213057E0,2.059794617E1,2.757725716E1
1.853356214E2,3.332830429E0,1.087479591E1,6.687209606E0
1.854356855E2,3.289733648E0,-3.596200705E0,4.005621910E0
1.855357480E2,3.759011507E0,1.656838179E0,1.352765322E0
1.856358137E2,1.036720991E0,2.224041939E1,2.992843390E-1
1.857358784E2,4.094209969E-1,1.290514088E1,-8.212362528E-1
1.858359492E2,-3.198751211E0,3.083826065E0,-5.650488734E-1
1.859360152E2,3.225088120E0,8.126168251E0,4.189980984E0
1.860360811E2,1.247417164E1,1.318048286E1,5.684008598E0
1.861361378E2,9.064723969E0,5.851607800E0,3.677606106E0
1.862362085E2,3.557892323E0,2.303292274E0,-6.411868095E0
1.863362706E2,1.271359921E0,6.136526108E0,2.504411459E0
1.864363346E2,1.231375504E1,1.019242764E1,-6.040755272E0
1.865364003E2,1.338399649E0,5.415849686E0,-2.401457548E0
1.866364626E2,3.342407703E0,6.148497581E0,9.002473354E-1
1.867365324E2,2.102173328E0,9.138946533E0,-3.095797300E0
1.868366011E2,5.865973473E0,1.076944828E1,-3.136500120E-1
1.869366699E2,6.890722752E0,5.262616158E0,-1.891477108E-1
1.870367388E2,3.873936653E0,7.348029613E0,3.653663397E0
1.871368030E2,-2.652856588E0,1.366891479E1,4.549122229E-2
1.872368716E2,3.639297783E-1,9.572310448E0,3.881119490E0
1.873369439E2,-2.513988614E-1,6.636929989E0,-5.674431324E-1
1.874370046E2,2.284138203E0,7.357606411E0,4.249837875E0
1.875370717E2,2.849186957E-1,1.276866722E1,3.495641351E-1
1.876371358E2,4.359974384E0,7.937020779E0,3.402264595E0
1.877372034E2,9.771035194E0,6.328068256E0,2.877918243E0
1.878372734E2,3.232271075E-1,8.997684479E0,-8.262641907E0
1.879373401E2,-1.702329397E0,9.194015503E0,-1.130815983E1
1.880374074E2,-4.573064744E-1,3.565075159E0,-6.636929989E0
1.881374750E2,5.727105141E0,3.287339211E0,-1.573038578E0
1.882375439E2,1.391073704E1,8.250671387E0,-4.915446281E0
1.883376087E2,4.589824677E0,8.437424660E0,-2.190761566E0
1.884376791E2,9.186832428E0,6.821289062E0,-4.491659641E0
1.885377543E2,3.907456398E0,5.238673210E0,-1.652049571E-1
1.886378080E2,-3.244242430E0,1.393946838E1,-2.394274808E-2
1.887378798E2,-5.219519138E-1,1.093225861E1,-1.058269501E0
1.888379441E2,3.091008663E0,5.593026161E0,-2.839609861E0
1.889380168E2,2.552296877E0,7.343240738E0,-4.257020473E0
1.890380798E2,9.577099234E-2,1.047974110E1,-8.770228386E0
1.891381460E2,2.870735407E0,5.662459850E0,-6.524398804E0
1.892382160E2,1.102084732E1,4.881926537E0,3.917033672E0
1.893382824E2,8.356019258E-1,1.319005966E1,-4.058295727E0
1.894383481E2,-1.271359921E0,1.469845295E1,-4.357580185E0
1.895384258E2,7.467742920E0,7.170853138E0,-5.650488734E-1
1.896384802E2,6.926637173E0,5.590631485E0,-1.266571403E0
1.897385494E2,-5.281770229E0,8.114197731E0,-7.848433018E0
1.898386208E2,6.838048935E0,8.502069473E0,-9.162889481E0
1.899386839E2,1.068804264E1,2.985660791E0,-1.867534399E0
1.900387513E2,1.112858963E1,1.405439258E0,-1.927391171E0
1.901388213E2,-1.589798450E0,3.225088120E0,-2.731867552E0
1.902388942E2,6.069486618E0,6.407079220E0,-1.910631299E0
1.903389526E2,4.740664005E0,8.080677032E0,-3.610566378E0
1.904390211E2,3.249030828E0,1.059466648E1,8.044763207E-1
1.905390955E2,-3.567469358E0,1.483971500E1,-1.843591630E-1
1.906391563E2,5.468523502E0,9.378374100E0,-3.447755814E0
1.907392176E2,1.454521942E1,2.681587696E0,7.422251999E-2
1.908392873E2,8.667274475E0,-1.532335877E-1,1.493309212E1
1.909393654E2,-1.786128998E0,1.039833546E1,1.855562973E1
1.910394240E2,-4.043930054E0,5.779779434E0,3.988861799E0
1.911394999E2,-7.532388687E0,4.862771988E0,5.554717541E0
1.912395600E2,-9.909903526E0,1.188996887E1,1.046058655E1
1.913396339E2,-5.880339146E0,9.079090118E0,1.109985828E1
1.914396959E2,-3.663240373E-1,-6.632141471E-1,1.178462029E1
1.915397672E2,3.440572977E0,1.853168726E0,8.964164734E0
1.916398220E2,-3.158048391E0,3.979284763E0,7.082264900E0
1.917398896E2,-4.824463844E0,2.209915638E0,7.518022656E-1
1.918399564E2,-4.489265442E0,-6.368771195E-1,5.435003638E-1
1.919400350E2,-1.299133492E1,-8.715160489E-1,2.188367128E0
1.920400988E2,-1.130576611E1,1.142069101E0,9.869200706E0
1.921401577E2,-7.388731956E0,-2.446948767E0,9.146129608E0
1.922402260E2,1.245022893E0,1.213897347E0,9.991309166E0
1.923402947E2,-4.271386147E0,4.477293789E-1,4.496448040E0
1.924403621E2,-8.406298637E0,1.577827096E0,1.140871906E1
1.925404288E2,-8.066311836E0,-3.095797300E0,7.853221297E-1
1.926404942E2,-1.112619495E1,-3.914639235E0,2.387091875E0
1.927405655E2,-1.374074268E1,-5.655277252E0,1.364257812E1
1.928406278E2,-6.778192043E0,-2.174001455E0,8.274613380E0
1.929407048E2,5.530774593E-1,-4.237866402E-1,9.229928970E0
1.930407774E2,-3.126922846E0,-1.034326673E0,9.115004539E0
1.931408345E2,-9.469356537E0,5.578660369E-1,1.169124413E1
1.932408970E2,-7.984906673E0,-3.227482557E0,1.678386688E0
1.933411010E2,-1.156674194E1,-5.851607800E0,1.913025618E0
1.934411767E2,-7.087053299E0,-3.184385598E-1,1.802410126E1
1.935412420E2,-1.443747759E0,5.808510780E0,1.421002102E1
1.936413136E2,5.442186832E0,9.146129489E-1,3.091008663E0
1.937413668E2,5.590631485E0,-4.788549542E-1,1.629782867E1
1.938414383E2,-9.883566856E0,-7.853221297E-1,2.011909103E1
1.939415037E2,-5.870761871E0,1.142069101E0,-2.863552570E0
1.940415714E2,-8.818114281E0,1.005595401E-1,1.081493950E1
1.941416467E2,-9.950606346E0,6.495667458E0,1.687963676E1
1.942417116E2,-5.506832153E-2,6.158074856E0,9.462174416E0
1.943417717E2,8.044763565E0,-6.943397224E-2,9.229928970E0
1.944418426E2,1.026186180E1,1.060663700E0,5.688796997E0
1.945419076E2,-2.128510237E0,5.978504181E0,2.060752296E1
1.946419710E2,-6.138920784E0,4.834040642E0,8.858817071E-2
1.947420440E2,-7.867587090E0,1.771763325E0,8.085466385E0
1.948421099E2,-5.830059052E0,1.096817303E1,2.097145271E1
1.949421782E2,-1.118126392E0,8.753468513E0,9.644139290E0
1.950422426E2,3.998438835E0,-4.213923812E-1,7.352818012E0
1.951423164E2,1.035763264E1,2.418217659E0,4.647287369E0
1.952423770E2,-1.285725594E0,1.092986488E1,1.406875896E1
1.953424437E2,-5.377541065E0,6.969734192E0,3.663240373E-1
1.954425103E2,-2.322446585E0,4.939388752E0,5.650488377E0
1.955425787E2,-3.112557173E0,6.012023926E0,1.061142635E1
1.956426412E2,3.088614464E0,9.610619545E0,1.314217472E1
1.957427086E2,4.877137661E0,-8.858817071E-2,5.063891411E0
1.958427918E2,9.498087883E0,-1.889082789E0,2.116539001E0
1.959428466E2,6.780586243E0,5.971321583E0,1.469845295E1
1.960429140E2,2.102173328E0,8.581081390E0,8.645726204E0
1.961429805E2,-2.789330244E0,4.218712330E0,3.409447432E0
1.962430487E2,-7.228315830E0,5.547534943E0,2.944957972E0
1.963431171E2,3.359167576E0,1.193067169E1,2.230266953E1
1.964431817E2,4.199557781E0,3.304099321E0,5.791750908E0
1.965432489E2,1.085324764E1,-5.858790398E0,2.875524044E0
1.966433105E2,8.801354408E0,1.726272106E0,4.266597748E0
1.967433809E2,8.224333763E0,4.728692532E0,3.254537582E1
1.968434593E2,-4.237866402E0,4.860377789E0,2.482862949E0
1.969435217E2,-7.604216576E0,4.091815472E0,5.480494976E0
1.970435870E2,2.600182533E0,1.112140656E1,2.657884407E1
1.971436626E2,5.061496735E0,5.370358467E0,7.144515991E0
1.972437181E2,1.065691757E1,-2.614548206E0,6.474119186E0
1.973437902E2,1.022115898E1,-7.134938836E-1,-2.499622822E0
1.974438581E2,6.562707424E0,8.597841263E0,1.488760090E1
1.975439209E2,4.046324253E0,7.704776287E0,1.279261017E1
1.976439871E2,-3.450150013E0,6.366376877E0,9.352037430E0
1.977440519E2,-4.819674969E0,8.772623062E0,1.488999462E1
1.978441330E2,6.282577038E0,9.950606346E0,1.310626030E1
1.979441946E2,8.660092354E0,-1.084606528E0,1.026904488E1
1.980442556E2,1.181574631E1,-1.300091267E0,-1.580221415E0
1.981443280E2,6.541158676E0,8.887548447E0,8.150111198E0
1.982443901E2,1.302485466E0,1.225868702E1,5.396695614E0
1.983444597E2,-3.900273561E0,6.062304020E0,7.925049782E0
1.984445236E2,-5.717528343E0,7.944203854E0,7.690410614E0
1.985445905E2,4.362368584E0,1.341991043E1,1.536884975E1
1.986446616E2,4.027170181E0,5.097411156E0,1.010383987E1
1.987447289E2,9.045570374E0,-1.683175206E0,9.984126091E-1
1.988447970E2,8.775016785E0,4.711932659E0,5.743865490E0
1.989448638E2,-9.098244458E-2,8.049551964E0,1.789959908E1
1.990449340E2,-3.117345810E0,4.580247879E0,7.020013809E0
1.991449960E2,-5.468523502E0,2.353572130E0,8.755863190E0
1.992450776E2,-2.418217510E-1,6.531581879E0,2.863073730E1
1.993451316E2,1.285725594E0,2.932986736E0,1.134167957E1
1.994452130E2,4.010410309E0,-4.211529255E0,3.177202702E0
1.995452634E2,1.080296803E1,-2.248224020E0,2.269772530E0
1.996453241E2,2.892283916E0,4.941783428E0,2.849426460E1
1.997453970E2,-3.213116884E0,6.103006363E0,2.849187136E0
1.998454860E2,-7.680833817E0,9.984126091E-1,4.063084126E0
1.999455318E2,-6.814105988E0,9.964971542E0,9.703995705E0
2.000456049E2,1.477267504E0,1.019242764E1,1.321160793E1
2.001456659E2,4.094210148E0,-2.253012657E0,4.539545059E0
2.002457368E2,1.044861507E1,-2.111750364E0,4.747847080E0
2.003458064E2,6.861991405E0,7.963357925E0,1.285964966E1
2.004458654E2,-3.021574736E0,5.715134144E0,4.292934895E0
2.005459334E2,-5.995264053E0,3.562680960E0,9.929058075E0
2.006463658E2,-5.837242126E0,3.854782343E0,1.118605232E1
2.007464398E2,1.474873304E0,7.206767082E0,1.726750946E1
2.008464997E2,4.393494129E0,3.567469358E0,1.218685865E0
2.009465738E2,7.034379482E0,-4.980091572E0,8.123774529E0
2.010466357E2,4.752635479E0,6.129343510E0,3.876330853E0
2.011467132E2,2.853975534E0,1.027143860E1,1.119323444E1
2.012467774E2,-4.944177628E0,3.591412306E0,1.807677507E0
2.013468355E2,-9.603436470E0,4.300117493E0,3.936187744E0
2.014469039E2,-3.871542454E0,1.375750351E1,3.461403275E1
2.015469704E2,5.904281616E0,7.439012051E0,6.500456333E0
2.016470349E2,1.002482891E1,-6.086246490E0,4.462928295E0
2.017471059E2,9.490905762E0,5.626545548E-1,-6.632141471E-1
2.018471825E2,4.647287369E0,9.076695442E0,2.045668411E1
2.019472384E2,-2.097384691E0,7.060716629E0,5.873156071E0
2.020473196E2,-7.020013809E0,5.918647289E0,8.442213058E0
2.021473802E2,-4.752635479E0,1.113337803E1,2.337769890E1
2.022474399E2,8.652909279E0,5.317684174E0,1.116689777E1
2.023475068E2,7.527599812E0,-3.936187744E0,3.442967176E0
2.024475787E2,1.185166073E1,-4.436591148E0,-5.109382629E0
2.025476409E2,9.802161217E0,9.809344292E0,1.940559769E1
2.026477053E2,-1.711906433E0,7.415069103E0,1.156434727E1
2.027477840E2,-6.170046329E0,1.829225898E0,-2.537931204E0
2.028478561E2,-1.038157558E1,3.596200705E0,-1.740637779E0
2.029479105E2,5.147690773E-1,1.124830341E1,4.174178696E1
2.030479767E2,3.459727049E0,-1.675992310E-1,3.481275558E0
2.031480438E2,1.324752235E1,-6.969734192E0,4.865166187E0
2.032481113E2,6.526793003E0,3.672817469E0,7.750267506E0
2.033481817E2,-4.503631115E0,9.902720451E0,3.723815536E1
2.034482456E2,-2.576239586E0,3.414235830E0,-1.007989645E0
2.035483128E2,-6.658478260E0,5.387118459E-1,-3.519583941E0
2.036483749E2,-7.716747761E0,1.433212948E1,2.052851295E1
2.037484459E2,-9.098244309E-1,8.099831581E0,1.288359261E1
2.038485160E2,7.360000610E0,-4.529967785E0,3.466909885E0
2.039485847E2,1.341751575E1,-1.419804931E0,6.680026531E0
2.040486498E2,2.856369734E0,1.089634418E1,1.513899994E1
2.041487176E2,-4.575459003E0,7.029590607E0,1.110225201E1
2.042487878E2,-3.335224867E0,1.630501151E0,-2.786935806E0
2.043488484E2,-9.301757812E0,4.359974384E0,-3.447755575E-1
2.044489199E2,-1.582615614E0,1.155477047E1,3.369223404E1
2.045489841E2,7.494080067E-1,1.395862222E0,5.051919818E-1
2.046490470E2,1.078141975E1,-6.083852291E0,4.077449799E0
2.047491207E2,7.711959362E0,2.502017260E0,1.391313076E1
2.048491842E2,-8.616994858E0,8.516435623E0,2.874326897E1
2.049492661E2,-4.458139896E0,3.280156374E0,-1.776551962E0
2.050493236E2,-7.664073467E0,7.446194887E-1,-1.063058019E0
2.051493888E2,-1.310865498E1,1.551490116E1,3.797319794E1
2.052494523E2,-8.858817071E-2,6.385530949E0,5.638517380E0
2.053495275E2,7.522811413E0,-6.821289062E0,5.260221958E0
2.054495927E2,7.683228016E0,8.188419938E-1,-2.152452946E0
2.055496562E2,-6.775797606E-1,8.662486076E0,2.973689270E1
2.056497160E2,-5.810904980E0,4.321666241E0,4.659258842E0
2.057497896E2,-3.929004908E0,1.496421814E0,-3.272973776E0
2.058498617E2,-1.275430202E1,9.107821465E0,8.578686714E0
2.059499324E2,-1.304879785E0,6.445387840E0,1.832099152E1
2.060499932E2,3.177202702E0,-3.126922846E0,9.624984860E-1
2.061500624E2,1.107591534E1,-3.545921087E0,3.186779737E0
2.062501258E2,-5.099805593E-1,9.821314812E0,1.094662476E1
2.063501970E2,-8.200390816E0,6.897905827E0,1.043185520E1
2.064502656E2,-2.755810261E0,2.940169573E0,-3.605777979E0
2.065503308E2,-6.294548512E0,4.266597748E0,6.081458092E0
2.066503877E2,3.675211906E0,1.129379463E1,3.979045486E1
2.067504574E2,2.298503816E-1,2.384697676E0,2.138087511E0
2.068505365E2,9.893143654E0,-5.901887417E0,4.573064804E0
2.069506147E2,8.279402733E0,1.175588965E0,9.672870636E0
2.070506619E2,-8.097437859E0,6.004841328E0,3.839698410E1
2.071507309E2,-4.237866402E0,5.087833881E0,-2.245829821E0
2.072508004E2,-5.724710941E0,1.118126392E0,1.834014535E0
2.073508784E2,-9.644139290E0,1.144463348E1,2.015979385E1
2.074509404E2,-1.345582485E0,8.990502357E0,9.644139290E0
2.075509986E2,4.960937500E0,-4.268991947E0,4.508419514E0
2.076510640E2,1.105436707E1,-1.261782765E0,-3.550709486E0
2.077511347E2,-1.166011810E0,1.117647457E1,2.115102386E1
2.078512042E2,-5.406272411E0,6.179623127E0,6.601015568E0
2.079512213E2,-1.845985889E0,1.956122518E0,-1.041509509E0
2.080512907E2,-7.606611252E0,5.806116581E0,4.367157459E0
2.081513554E2,-8.547561169E-1,7.575485706E0,2.624125099E1
2.082514228E2,1.529941559E0,8.763045669E-1,1.841197371E0
2.083514973E2,8.928250313E0,-4.549122334E0,5.360781193E0
2.084515579E2,4.357580185E0,5.863578796E0,1.105436707E1
2.085516245E2,-3.830839634E0,6.622564316E0,1.909673500E1
2.086516866E2,-1.901054144E0,4.017592907E0,4.819674969E0
2.087517569E2,-1.692752242E0,2.030344963E0,3.402264595E0
2.088518326E2,2.633702382E-2,9.737515450E0,2.874805832E1
2.089518929E2,1.288119793E0,7.075081825E0,8.111803055E0
2.090519651E2,4.405465603E0,-1.374313712E0,3.885908127E0
2.091520345E2,6.172440529E0,1.314456820E0,5.147690773E0
2.092520938E2,-2.197944164E0,8.437424660E0,2.180466080E1
2.093521687E2,-7.230709791E-1,5.183605194E0,3.344801903E0
2.094522337E2,4.094209969E-1,2.293715239E0,1.347976685E0
2.095522970E2,-5.332049847E0,6.416656494E0,7.664073467E0
2.096523566E2,-3.153259993E0,1.008708000E1,1.466014481E1
2.097524369E2,9.960182905E-1,1.884294271E0,7.982511997E0
2.098524973E2,8.640937805E0,-3.203539610E0,4.664047241E0
