"Time (s)","Gyroscope x (rad/s)","Gyroscope y (rad/s)","Gyroscope z (rad/s)"
2.679455170E-1,-2.520234585E-1,-1.406158686E0,-2.293912172E0
3.680095340E-1,-6.081578732E-1,-7.568088770E-1,-7.392599583E-1
4.680794120E-1,6.379388273E-2,2.156885862E-1,-5.999826789E-1
5.681368580E-1,4.351999462E-1,2.422744513E0,7.054363489E-1
6.681997050E-1,-1.874481559E0,1.972537041E0,9.082435966E-1
7.682737160E-1,-1.952129751E-1,-8.203388453E-1,8.025639057E-1
8.683455290E-1,7.858366370E-1,-5.717167258E-1,-8.807760477E-2
9.684122420E-1,-1.537283897E0,1.191718653E-1,-2.020244360E0
1.068470665E0,-3.057796061E-1,-1.483871192E-1,-8.675416708E-1
1.168549878E0,2.427773923E-1,4.007807374E-1,-4.448229074E-1
1.268606490E0,3.808329403E-1,1.371445656E0,7.475860715E-1
1.368672705E0,-8.378431797E-1,2.193670273E0,1.299808264E0
1.468759987E0,-1.046148300E0,-4.759434611E-2,8.734242916E-1
1.568810798E0,4.400868714E-1,-5.271235108E-1,-1.821508557E-1
1.668877412E0,1.088825822E0,2.016386688E-1,-1.313473225E0
1.768946831E0,3.618961275E-1,-8.270584345E-1,-2.200245112E-1
1.869012050E0,2.165101916E-1,1.869779080E-1,3.165198490E-2
1.969080197E0,7.736192942E-1,1.576085448E0,-1.049771905E-2
2.069152379E0,-2.068194300E-1,4.142197967E-1,1.064625144E0
2.169233290E0,-1.658235192E0,-5.766036510E-1,1.293699622E0
2.269280440E0,4.546792060E-2,5.357819796E-1,-2.982152402E-1
2.369341919E0,2.988616705E0,-1.483738542E0,-5.144615769E-1
2.469418302E0,-8.268476725E-1,-2.092771292E0,-1.444198489E0
2.569488115E0,-4.963695407E-1,1.039002389E-1,-6.574040055E-1
2.669551629E0,5.457665324E-1,1.453301549E0,-2.059745938E-1
2.769619811E0,8.194342256E-1,5.999227762E-1,1.721916080E0
2.869688691E0,-1.170764804E0,5.003517866E-1,1.279649615E0
2.969760003E0,-6.393120289E-1,6.066423059E-1,-6.702321768E-1
3.069821615E0,1.788266420E0,-3.509978533E0,-6.036478877E-1
3.169889801E0,4.565802217E-1,-2.346280336E0,-8.669307828E-1
3.269953517E0,-9.343599081E-1,-9.583944082E-1,-8.449396491E-1
3.370013532E0,5.732554793E-1,6.487920284E-1,-3.935102224E-1
3.470087480E0,1.134640574E0,2.616388798E0,1.703590155E0
3.570154326E0,-6.942899227E-1,2.883337259E0,1.982755661E0
3.670222008E0,-1.243457794E0,2.932684720E-1,4.452077746E-1
3.770286590E0,1.254912764E-1,-1.230229497E0,-7.691923976E-1
3.870351636E0,-2.049868256E-1,-1.465545148E-1,-1.750852823E0
3.970425483E0,-4.261200428E-1,-1.082400084E0,-4.802530706E-1
4.070488928E0,1.755822152E-1,3.120727278E-2,-5.279005766E-1
4.170555512E0,1.006358981E0,2.003080368E0,9.418411851E-1
4.270628929E0,-1.358911276E0,3.813073874E0,1.031027436E0
4.372116432E0,-1.703439355E0,-1.373782873E0,-4.653877020E-2
4.472192149E0,9.098422527E-1,-1.155093074E0,-5.413395762E-1
4.572254527E0,1.846298695E0,-2.033649683E-1,-1.384944558E0
4.672321507E0,-1.072483882E-1,-1.745188832E0,-3.513605297E-1
4.772393219E0,-2.764580548E-1,-4.629826844E-1,-4.592790082E-2
4.872461031E0,8.487557173E-1,1.507057786E0,7.689663172E-1
4.972523143E0,-5.959405899E-1,1.645724177E0,1.291866899E0
5.072603029E0,-2.127379656E0,-3.110098280E-2,4.122210443E-1
5.172657911E0,3.722808361E-1,-3.689094484E-1,-2.536220849E-1
5.272725491E0,2.816963673E0,-1.761071444E0,-9.475650191E-1
5.372796739E0,4.614671767E-1,-3.750048637E0,-4.531703889E-2
5.472861354E0,-3.638802096E-2,1.081762910E-1,-1.186208650E-1
5.572929566E0,1.584779918E-1,1.833259821E0,-2.780567110E-1
5.672994945E0,1.048508644E0,-1.277502440E-2,2.294296980E0
5.773060158E0,-1.815838456E0,-1.582935080E-2,1.564312816E0
5.873149740E0,-6.655791998E-1,7.575260401E-1,-1.721723750E-2
5.973194153E0,1.499327183E0,-2.087884188E0,-9.713887572E-1
6.073262434E0,-7.016202807E-1,-3.021897316E0,-1.510782719E0
6.173333489E0,-1.435269356E0,4.569803476E-1,-4.851400256E-1
6.273402235E0,-5.751711130E-1,1.847920537E0,-8.003464937E-1
6.373457518E0,4.578019679E-1,7.349240184E-1,1.678544641E0
6.473529999E0,-1.196421146E0,1.458188534E0,9.992625117E-1
6.573594847E0,-1.128615141E0,3.305312395E-1,-6.097565293E-1
6.673669200E0,1.655708790E0,-3.010290861E0,-2.914957404E-1
6.773730246E0,1.675725542E-2,-1.009096265E0,-1.617684245E0
6.873801826E0,-7.914174795E-1,-3.756289780E-1,-6.885581613E-1
6.973865872E0,3.142486215E-1,8.430472016E-1,-4.429903328E-1
7.073937852E0,7.638454437E-1,2.428242445E0,9.442846775E-1
7.173999432E0,-1.522012353E0,3.089809656E0,7.640793920E-1
7.274066011E0,-1.694887161E0,-1.373782873E0,2.283505797E-1
7.374129793E0,3.508321196E-2,-5.869883299E-1,-5.859327912E-1
7.474200207E0,1.147468925E0,8.607622385E-1,-1.792391658E0
7.574269254E0,1.858985052E-2,-2.042680264E0,-9.113193303E-2
7.674335131E0,4.211500585E-1,-5.155171752E-1,4.427642822E-1
7.774402381E0,5.311057568E-1,1.711697459E0,3.016544282E-1
7.874469193E0,-4.817087650E-1,1.160697103E0,9.766605496E-1
7.974543139E0,-1.297824740E0,-1.301089883E0,7.610250711E-1
8.074602753E0,4.571911097E-1,-1.856498867E-1,-7.581967711E-1
8.174670401E0,1.438851595E0,-3.151533306E-1,-1.172974229E0
8.274738047E0,1.101653934E0,-2.665762663E0,3.706821799E-1
8.374802595E0,-6.643574834E-1,2.737207711E-1,-1.169919968E0
8.474870946E0,-5.227051675E-2,6.695614457E-1,-1.919246912E-1
8.574949693E0,1.505367458E-1,1.595022321E0,2.392035484E0
8.675009108E0,-1.776743174E0,8.906946778E-1,9.736062288E-1
8.775075555E0,7.906551659E-2,7.526391149E-1,-2.823327780E-1
8.875141802E0,1.113260388E0,-2.119649172E0,-1.121661663E0
8.975210081E0,-1.366241693E0,-1.618128896E0,-2.074611425E0
9.075275962E0,-5.861667395E-1,-4.434350133E-1,-6.537388563E-1
9.175347716E0,8.854076266E-1,2.309602052E-1,-2.328526676E-1
9.275417229E0,6.935959458E-1,2.674421072E0,6.327434182E-1
9.375477809E0,-2.250774384E0,2.979853868E0,6.199152470E-1
9.475541690E0,-1.192144990E0,-1.193577528E0,1.207567573E0
9.575613136E0,1.298963428E0,-4.965803027E-1,2.369027138E-1
9.675677020E0,1.625776410E0,6.744483709E-1,-1.695874929E0
9.775746699E0,1.132739633E-1,-1.061019778E0,-2.169701755E-1
9.875817780E0,3.631178737E-1,-5.087975860E-1,6.341698021E-2
9.975884027E0,3.551765978E-1,1.423979998E0,3.645735383E-1
1.007594757E1,1.774148047E-1,-5.326213241E-1,2.238097191E0
1.017602089E1,-1.547057748E0,-1.942019910E-1,6.932190657E-1
1.027608557E1,1.237876773E0,-2.131388187E-1,9.247369766E-1
1.037614269E1,1.433964610E0,-1.328578711E0,-9.536736608E-1
1.047621273E1,-6.582488418E-1,-1.894850850E0,-9.964342117E-1
1.057629204E1,-2.746254504E-1,-2.565102577E-1,-2.780567110E-1
1.067635169E1,-1.591719389E-1,1.177801371E0,-8.382201791E-1
1.077642347E1,1.226881385E0,2.564465284E0,1.932664633E0
1.087649258E1,-2.144483805E0,1.501559973E0,1.170304775E0
1.097655423E1,-4.652154148E-1,8.289972544E-1,5.747112036E-1
1.107661748E1,3.606743813E-1,-2.064671278E0,-1.364175081E0
1.117668562E1,-1.205584049E0,-1.668830633E0,-1.514448047E0
1.127674997E1,-1.637465835E0,4.588129520E-1,-9.866604209E-1
1.137682279E1,2.152884603E-1,8.473232388E-1,-3.715190589E-1
1.147689040E1,1.033237100E0,1.943215489E0,1.509945869E0
1.157695951E1,-8.433409929E-1,2.642656326E0,1.268654108E0
1.167702316E1,-1.011328936E0,-8.527147174E-1,7.091015577E-1
1.177708063E1,6.465592980E-1,-3.927332163E-1,-4.264969528E-1
1.187714071E1,-1.982673109E-1,-6.389119029E-1,-1.676938057E0
1.197720319E1,-8.421192765E-1,-5.759928226E-1,-1.011705875E0
1.207727064E1,8.059951663E-1,-9.974898100E-1,-1.283947080E-1
1.217734062E1,5.848619342E-1,1.364726067E0,3.413606584E-1
1.227740483E1,6.380072236E-1,2.431775033E-1,2.073163509E0
1.237746624E1,-1.955115676E0,-2.071627229E-2,6.779474020E-1
1.247753976E1,2.720989287E-1,9.065771699E-1,-5.309548974E-1
1.257761295E1,2.496259212E0,-7.616958022E-1,-1.012927651E0
1.267767156E1,-2.581321001E-1,-2.013358593E0,-6.830603480E-1
1.277774361E1,-1.952129751E-1,-3.469183147E-1,-1.748204678E-1
1.287780826E1,2.696554661E-1,1.284702778E0,6.830389053E-2
1.297787474E1,4.290913045E-1,-3.744072616E-1,1.883795381E0
1.307794592E1,-1.969165683E0,2.938793302E-1,9.400085807E-1
1.317800933E1,-6.490858793E-1,3.635179698E-1,1.312230229E-1
1.327808141E1,8.243210912E-1,-2.514879227E0,-1.077068448E0
1.337814476E1,-3.577031195E-1,-1.861253262E0,-2.122869730E0
1.347821707E1,-6.863486171E-1,1.704845428E-1,-8.473831415E-1
1.357827795E1,1.022783890E-1,2.908250093E-1,-5.205702186E-1
1.367834093E1,1.841343343E-1,7.104894519E-1,1.239943504E0
1.377841638E1,-1.546446919E0,2.781933308E0,7.048255205E-1
1.387847996E1,-7.547655702E-1,-4.025070369E-1,2.821067274E-1
1.397854997E1,3.765568733E-1,-7.604740858E-1,-3.183737993E-1
1.407861368E1,-6.167100072E-1,-9.095252156E-1,-1.496732950E0
1.417868030E1,-4.963695407E-1,6.280226707E-1,-6.244173050E-1
1.427874781E1,5.427122116E-1,6.908091903E-2,-2.823327780E-1
1.437882509E1,3.209681511E-1,2.161905289E0,8.856415749E-1
1.447888870E1,-1.377848148E0,2.881504297E0,8.831981421E-1
1.457894955E1,-1.580044508E0,-5.210148692E-1,4.287143946E-1
1.467900680E1,2.537729740E-1,-5.979839563E-1,-6.372454762E-1
1.477908334E1,2.006345272E0,-8.747058511E-1,-1.422207236E0
1.487914972E1,5.769206882E-1,-1.444643140E0,-1.033492386E-1
1.497921694E1,5.329384208E-1,-3.114881217E-1,-1.497749984E-1
1.507928952E1,4.144305289E-1,1.623122096E0,2.393461615E-1
1.517935090E1,1.231157303E0,1.698736846E-1,2.441515446E0
1.527941984E1,-1.774910569E0,-1.819846928E-1,2.827175856E-1
1.537948702E1,5.549295545E-1,7.312588692E-1,-3.061564863E-1
1.547955634E1,2.096142530E0,-2.759225130E0,-4.912486672E-1
1.557962465E1,-4.511655271E-1,-2.035349846E0,-1.113720298E0
1.567967790E1,-5.293562412E-1,-4.458784759E-1,-7.227665782E-1
1.577975408E1,3.050856590E-1,1.312802553E0,-5.211811066E-1
1.587982173E1,1.025295734E0,1.876631260E0,1.849586964E0
1.597988698E1,-1.033930898E0,2.913269520E0,1.020031929E0
1.607995532E1,-7.388830781E-1,3.488571942E-1,4.800270796E-1
1.618002397E1,3.032530546E-1,-2.087273359E0,-8.663199544E-1
1.628010095E1,-5.140846372E-1,-1.587718129E-1,-2.195562840E0
1.638015647E1,-4.071832299E-1,-3.188185096E-1,-8.321114779E-1
1.648023822E1,1.104708195E0,-2.377059869E-2,-3.432146460E-2
1.658030024E1,3.234116137E-1,1.747738600E0,2.741655111E-1
1.668035498E1,-1.197031975E0,2.079438448E0,1.073788047E0
1.678043343E1,-1.461536646E0,-1.095228314E0,9.833800197E-1
1.688049601E1,7.295685261E-2,-9.585270286E-2,-6.775625348E-1
1.698056072E1,-3.333369270E-2,-8.233931661E-1,-1.227952123E0
1.708063350E1,-3.333369270E-2,-4.367155135E-1,-2.695045769E-1
1.718070792E1,1.858985052E-2,-5.784361959E-1,-7.746901512E-1
1.728075940E1,-3.822061419E-2,1.875409365E0,-2.078071833E-1
1.738083159E1,1.418692946E0,5.869621038E-2,1.928388596E0
1.748090160E1,-1.202529788E0,-3.921223581E-1,8.215007186E-1
1.758096818E1,8.334156871E-2,1.686519533E-1,-5.089637637E-1
1.768102867E1,1.974580288E0,-1.447086692E0,-1.360509872E0
1.778111379E1,-1.202529788E0,-4.140391827E0,-1.438700676E0
1.788118510E1,-1.799413562E-1,2.743316293E-1,-2.090289295E-1
1.798122985E1,4.443629086E-1,1.249272585E0,1.043449491E-1
1.808130230E1,3.618961275E-1,1.205901146E0,2.239929914E0
1.818136995E1,-1.779186487E0,2.616388798E0,1.129376888E0
1.828143783E1,-4.407808185E-1,-7.752674073E-2,-7.524943352E-2
1.838150061E1,2.275057733E-1,-2.767166615E0,-9.970450997E-1
1.848157480E1,-1.357689619E0,-1.546046734E0,-1.846758723E0
1.858163271E1,-1.253231525E0,1.246696562E-1,-5.932632089E-1
1.868169783E1,6.648852825E-1,5.962576270E-1,-5.187376142E-1
1.878177501E1,7.320804596E-1,2.425799131E0,8.679265380E-1
1.888183446E1,-8.665539026E-1,3.369585991E0,1.032860160E0
1.898194640E1,-8.305128217E-1,-1.551544547E0,8.300528526E-1
1.908201331E1,7.711758614E-1,-3.505834937E-1,7.380168140E-2
1.918208216E1,-3.644226789E-1,9.004685283E-1,-1.300034285E0
1.928214840E1,-2.966850251E-2,-4.220547378E-1,-4.008406103E-1
1.938221905E1,6.245681643E-1,6.823896766E-1,-1.015371084E0
1.948228193E1,4.040458202E-1,2.392812252E0,7.323144078E-1
1.958235167E1,-6.082263216E-2,1.371445656E0,1.080507517E0
1.968240762E1,-1.398006558E0,-1.623015881E0,9.919321537E-1
1.978248460E1,-2.856210470E-1,-3.720963374E-2,-7.447577715E-1
1.988256298E1,3.042983532E0,-1.957769990E0,-8.486048579E-1
1.998261836E1,9.880329967E-1,-3.676133871E0,-1.674900800E-1
2.008268691E1,-5.287454128E-1,-2.430712283E-1,-1.036751390E0
2.018275332E1,3.019629046E-2,1.571198583E0,-5.694394112E-1
2.028282037E1,5.610381961E-1,2.321341038E0,1.353564382E0
2.038288679E1,-1.520179629E0,2.930373669E0,1.153200507E0
2.048295423E1,-6.784074306E-1,-3.670768738E-1,1.509945869E0
2.058302118E1,-7.853088379E-1,-3.283958435E0,-1.325079679E0
2.068308316E1,-9.923921227E-1,-2.214944363E0,-2.510158300E0
2.078315411E1,-1.015604973E0,-4.715348184E-1,-9.127456546E-1
2.088322253E1,-7.914859056E-2,5.046278238E-1,-4.631488621E-1
2.098329241E1,8.206559420E-1,4.141719818E0,1.263156414E0
2.108335536E1,-1.321648479E0,2.451455355E0,7.964552641E-1
2.118342327E1,-1.970387340E0,-1.491068959E0,1.045077443E0
2.128349135E1,2.782075703E-1,-2.229126692E-1,-6.384671926E-1
2.138355696E1,-9.306947589E-1,-1.013983130E0,-2.695250511E0
2.148362491E1,3.954937160E-1,-6.639574170E-1,2.900479734E-1
2.158369342E1,3.569407761E-2,-4.868064523E-1,-7.233774662E-1
2.168375650E1,4.895669520E-1,2.554080725E0,1.080101430E-1
2.178383306E1,4.987299144E-1,-1.015815735E0,2.052394390E0
2.188389697E1,-2.212290049E0,1.782557964E0,6.871104240E-1
2.198396495E1,4.932321608E-1,8.557427675E-2,-1.130100718E-4
2.208402843E1,2.073540449E0,-2.072001696E0,-1.090507388E0
2.218409597E1,-2.782906592E-1,-3.235699892E0,-1.551099896E0
2.228416815E1,-5.421844721E-1,1.961408854E-1,-4.631488621E-1
2.238423003E1,5.427122116E-1,7.282045484E-1,-2.041420043E-1
2.248429685E1,3.929085098E-3,2.704964399E0,1.618068933E0
2.258436673E1,-1.807286382E0,4.051922321E0,1.162974358E0
2.268442088E1,-1.324091911E0,-1.037196040E0,4.386929050E-2
2.278450463E1,7.216957211E-1,-2.328565121E0,-2.976043820E-1
2.288456947E1,-1.383956790E0,-2.369625717E-1,-2.339726925E0
2.298463166E1,-6.906247139E-1,4.673650563E-1,-1.025755763E0
2.308469890E1,3.411267102E-1,3.128161728E-1,-4.020623565E-1
2.318476495E1,-6.265522540E-2,1.942604661E0,1.236889124E0
2.328483110E1,4.681866765E-1,1.331128597E0,1.809269905E0
2.338490609E1,-1.611198664E0,-3.612046130E-3,1.015145063E0
2.348496717E1,9.110639691E-1,1.759823263E-1,-2.556471154E-3
2.358503535E1,2.399742603E0,-3.501426458E0,-7.355948091E-1
2.368511273E1,1.572562605E-1,-1.751908302E0,-3.812929392E-1
2.378516915E1,-1.573393345E-1,3.853765503E-2,-6.903907657E-1
2.388524577E1,5.213319659E-1,9.988178015E-1,-3.309973329E-2
2.398530165E1,9.910873175E-1,5.119582415E-1,2.908827305E0
2.408537416E1,-2.252607107E0,2.720236063E0,8.801438212E-1
2.418544251E1,2.769858539E-1,-1.766194776E-2,5.240094066E-1
2.428550522E1,-1.683349162E-1,-3.211265326E0,-2.728848219E0
2.438557154E1,-1.151896343E-1,-3.201491594E0,-2.913940191E0
2.448564342E1,1.230478063E-1,1.197827309E-1,-4.820857048E-1
2.458570804E1,1.692360640E0,1.142982006E0,-1.381685436E-1
2.468576996E1,7.681215405E-1,1.334793687E0,1.084783673E0
2.478584804E1,-1.759027958E0,4.381178856E0,7.927901149E-1
2.488591512E1,-1.300268173E0,-1.805664539E0,1.709698796E0
2.498598357E1,-2.972274721E-1,1.026785076E-1,-6.922233105E-1
2.508604018E1,-6.069361567E-1,-3.068322897E0,-2.302464008E0
2.518611433E1,5.494317412E-1,6.958286762E-1,-7.307078242E-1
2.528617978E1,1.261089683E0,-1.012150526E0,-3.049347401E-1
2.538624212E1,1.071653143E-1,1.511944532E0,2.387353033E-1
2.548631687E1,9.110639691E-1,7.208741307E-1,1.699924946E0
2.558637555E1,-1.340585351E0,7.361457348E-1,6.779474020E-1
2.568644841E1,1.499327183E0,-1.762903929E0,1.673657656E0
2.578651286E1,4.620780349E-1,-2.783048868E0,-1.362953424E0
2.588658977E1,-4.365047514E-1,-5.927172184E0,-1.029420853E0
2.598665532E1,-5.464605093E-1,-2.137496918E-1,-1.262771487E0
2.608673160E1,9.758156538E-1,2.069053650E0,-4.930812716E-1
2.618678965E1,8.420361876E-1,1.772173166E0,2.210608482E0
2.628707236E1,-2.133488417E0,5.075121403E0,1.379425377E-1
2.638713757E1,-1.709547997E0,-1.327357054E0,-1.387794167E-1
2.648721078E1,-3.247164190E-1,-1.883855224E0,-1.423429132E0
2.658727750E1,-1.598981380E0,-2.728681803E0,-1.895016909E0
2.668733438E1,4.022132158E-1,-8.527147174E-1,2.436222285E-1
2.678741333E1,-3.735856414E-1,5.718230009E-1,-1.237115145E0
2.688747314E1,-4.847631156E-1,2.708629608E0,3.590757549E-1
2.698754635E1,1.021630526E0,1.826540232E0,2.178232431E0
2.708760600E1,-9.911704063E-1,7.001047134E-1,1.277817130E0
2.718767558E1,1.283691764E0,-4.104483128E-1,5.606612563E-1
2.728774146E1,6.111291647E-1,-2.636441231E0,-1.536439061E0
2.738780764E1,3.936611116E-1,-1.952883005E0,-8.699851036E-1
2.748787392E1,1.248804033E-1,-1.034141779E0,-1.158313513E0
2.758794270E1,6.514462233E-1,1.514388084E0,-5.883762240E-1
2.768799938E1,-1.396242529E-1,5.504427552E-1,2.352329016E0
2.778807829E1,-1.546446919E0,4.110565662E0,1.094557524E0
2.788814411E1,-6.619139910E-1,2.272950113E-1,1.384107709E0
2.798821306E1,-5.233893171E-3,-1.633400559E0,-1.075846672E0
2.808827720E1,-2.345458746E0,-1.630346179E0,-3.263355255E0
2.818835205E1,2.592707574E-1,-5.277344584E-1,-4.570402205E-1
2.828841060E1,1.019187093E0,-1.046969891E0,-4.686466753E-1
2.838848107E1,-5.360758305E-1,2.804535389E0,2.472874075E-1
2.848854572E1,4.370325208E-1,1.243163943E0,1.690761924E0
2.858861310E1,-7.651502490E-1,-4.087482393E-2,1.923501611E0
2.868868188E1,1.014911056E0,4.972974658E-1,6.419063807E-1
2.878875064E1,1.407086492E0,-2.834972382E0,-1.772233009E0
2.888881469E1,1.152966499E0,-2.287026405E0,-9.567279816E-1
2.898888933E1,1.609214544E-1,-1.429982424E0,-7.349838614E-1
2.908894915E1,-3.858029544E-1,1.781947017E0,-1.815399975E-1
2.918901632E1,1.676409692E-1,1.548596501E0,2.979687691E0
2.928908697E1,-1.452984452E0,3.851558685E0,9.082435966E-1
2.938915005E1,-1.219634056E0,-2.528450489E-1,3.102065325E-1
2.948921717E1,4.485705495E-2,-1.671885014E0,-1.679381609E0
2.958928751E1,-1.487192988E0,-9.095252156E-1,-3.208987951E0
2.968934553E1,9.843677878E-1,-1.148373485E0,-4.179448187E-1
2.978942105E1,2.275057733E-1,-4.576174915E-2,-7.832422256E-1
2.988948707E1,-5.892210603E-1,2.083714485E0,7.414774299E-1
2.998955321E1,1.700844318E-1,2.845463276E0,1.469628811E0
3.008962010E1,-1.057143807E0,-3.847919703E-1,1.972370863E0
3.018968874E1,7.174196839E-1,2.291276157E-1,4.574250579E-1
3.028975619E1,1.563467979E0,-1.976095915E0,-2.363550425E0
3.038982157E1,8.756337762E-1,-9.748877287E-1,-1.411211729E0
3.048989038E1,9.318333864E-1,-1.212514400E0,-5.114072561E-1
3.058996560E1,-7.426166534E-2,1.769729733E0,1.849791557E-1
3.069001768E1,6.575548649E-1,-2.546776533E-1,2.980909348E0
3.079008746E1,-1.641741991E0,2.960916996E0,5.582178235E-1
3.089015671E1,-7.016202807E-1,-7.818543911E-1,2.607264519E-1
3.099022539E1,-2.336974889E-1,-3.852062941E0,-1.688544512E0
3.109029973E1,-6.277055740E-1,-2.981580019E0,-2.227327585E0
3.119035871E1,-2.868427634E-1,-4.116700292E-1,-9.084696174E-1
3.129042789E1,-4.084049761E-1,1.029971957E0,-1.209015369E0
3.139049687E1,-1.915477961E-1,1.513166428E0,1.556371570E0
3.149056365E1,-5.849450231E-1,3.525967360E0,1.671825171E0
3.159063240E1,-1.500089616E-1,4.044459164E-1,1.723748684E0
3.169068988E1,9.141182899E-1,-1.630478799E-1,3.303650916E-1
3.179076676E1,6.111291647E-1,-2.368271589E0,-2.012913942E0
3.189083541E1,2.323926836E-1,-6.731203794E-1,-6.677886844E-1
3.199090729E1,7.943887115E-1,-1.937611461E0,-8.388310075E-1
3.209096267E1,1.896321326E-1,2.249869823E0,-1.864269078E-1
3.219102872E1,1.365547776E0,5.564188212E-2,2.756111145E0
3.229110406E1,-8.769385815E-1,2.051338673E0,1.391438007E0
3.239116371E1,-8.512822986E-1,9.290466458E-2,6.606507581E-3
3.249123229E1,2.207862586E-1,-3.127576828E0,-1.778341770E0
3.259129724E1,-5.886102319E-1,-3.382307529E0,-2.636607409E0
3.269136279E1,-7.066489197E-3,-7.616958022E-1,-9.970450997E-1
3.279143981E1,1.957407743E-1,1.340902328E0,-4.802530706E-1
3.289150196E1,5.157657713E-2,1.433753848E0,2.405474424E0
3.299156870E1,-1.310652971E0,4.757471561E0,9.076327682E-1
3.309164152E1,-2.035139084E0,-4.324394464E-1,5.227876306E-1
3.319172357E1,9.086204767E-1,-6.945006251E-1,-1.283947080E-1
3.329176775E1,-4.438351393E-1,-8.765384555E-1,-3.186997175E0
3.339184520E1,1.014300227E0,-1.134323597E0,-4.100036025E-1
3.349190158E1,6.160160303E-1,-9.345706701E-1,-2.517894804E-1
3.359191558E1,-2.037650943E-1,2.596230507E0,8.392158151E-1
3.369197496E1,2.228089333E0,6.921634674E-1,2.808034420E0
3.379203601E1,-1.062641621E0,1.555926919E0,1.158698320E0
3.389211346E1,3.728916943E-1,-8.863123059E-1,9.522258639E-1
3.399217204E1,2.586598694E-1,-2.306573868E0,-1.353179574E0
3.409224278E1,-1.256427635E-2,-2.495942116E0,-1.683046699E0
3.419230566E1,-6.680226922E-1,3.641288579E-1,-1.215124011E0
3.429237731E1,2.702663243E-1,1.764231920E0,6.463870406E-2
3.439244486E1,5.640925169E-1,7.019373178E-1,2.928375006E0
3.449250771E1,-1.369906902E0,4.438600063E0,6.125848293E-1
3.459257735E1,-1.943509221E0,-7.397046685E-1,-3.922884762E-1
3.469263443E1,-3.448749781E-1,-2.602843761E0,-1.081344485E0
3.479270814E1,-1.302100778E0,-1.804442763E0,-2.067281008E0
3.489279112E1,6.196812987E-1,-4.758108854E-1,-1.037973046E0
3.499284651E1,9.196161032E-1,3.670505807E-2,-1.030031919E0
3.509291022E1,-4.597176313E-1,1.917559147E0,1.195961237E0
3.519297743E1,-1.206874251E-1,4.295046806E0,2.238097191E0
3.529304485E1,-9.771204591E-1,-1.498399258E0,1.621734262E0
3.539311179E1,-3.515944779E-1,-2.192474753E-1,-2.047528625E-1
3.549317807E1,-1.220855713E0,-1.218012214E0,-2.869957924E0
3.559324688E1,6.294550896E-1,-8.081215620E-1,-5.401178598E-1
3.569331117E1,6.202921271E-1,-2.186366171E-1,-8.632656336E-1
3.579338421E1,-8.831156790E-2,2.469170332E0,2.387353033E-1
3.589344816E1,1.350276113E0,9.615550637E-1,2.125698090E0
3.599351911E1,-1.581877112E0,4.673650563E-1,1.166028738E0
3.609358186E1,4.187065661E-1,-2.058084458E-1,1.137318134E0
3.619365337E1,7.247500420E-1,-3.023729801E0,-1.716644406E0
3.629372175E1,1.535910666E-1,-2.995018959E0,-2.127145767E0
3.639378333E1,-5.385192037E-1,-4.880281985E-1,-8.669307828E-1
3.649385391E1,2.226188332E-1,1.591968060E0,1.104535982E-1
3.659392316E1,1.195116282E0,1.045110971E-1,2.936316252E0
3.669398140E1,-1.644185305E0,3.356146812E0,1.467796087E0
3.679405905E1,-7.040637136E-1,4.081111252E-1,3.560214341E-1
3.689411737E1,2.360578775E-1,-2.246098280E0,-1.721531272E0
3.699418625E1,-2.437699318E0,-2.572911263E0,-2.882175207E0
3.709425653E1,-4.279526472E-1,-3.963983953E-1,-5.205702186E-1
3.719432767E1,1.358759701E-1,1.009813428E0,-5.028551221E-1
3.729438849E1,4.009914994E-1,2.763607502E0,1.304695249E0
3.739445337E1,-9.740661383E-1,3.399518251E0,1.038357854E0
3.749452532E1,-9.581836462E-1,1.112306193E-1,1.035914421E0
3.759458686E1,3.808329403E-1,-8.453843594E-1,3.089848161E-1
3.769465068E1,-2.874536514E-1,-1.768401742E0,-2.336061716E0
3.779473566E1,1.432063580E-1,2.303493470E-1,-7.013862729E-1
3.789479704E1,9.336659908E-1,-2.180257440E-1,-3.996188641E-1
3.799485609E1,-2.465256602E-1,1.150312424E0,3.303650916E-1
3.809492447E1,6.239573359E-1,-1.238170624E0,1.960153580E0
3.819499062E1,-1.043704867E0,-2.333452225E0,7.502341270E-2
3.829507370E1,-1.683349162E-1,3.794004619E-1,4.684206247E-1
3.839512778E1,1.859737635E0,-7.116048336E-1,-5.193484426E-1
3.849520070E1,9.837569594E-1,-1.965711236E0,-4.014514685E-1
3.859526245E1,-5.061433911E-1,-2.546776533E-1,-3.556365967E-1
3.869532120E1,1.945190430E-1,1.201625109E0,-1.497749984E-1
3.879540238E1,1.060115099E0,-1.642696112E-1,1.916171312E0
3.889547822E1,-1.219023228E0,1.940771937E0,4.445968866E-1
3.899553124E1,-1.021102786E0,-6.877811551E-1,2.827175856E-1
3.909559422E1,1.902429760E-1,-1.396995783E0,-1.091729283E0
3.919566166E1,-6.038818359E-1,-1.359732866E0,-2.431356668E0
3.929573405E1,-4.145136178E-1,5.877054930E-1,-1.238947749E0
3.939579766E1,1.210387945E0,-1.460762043E-2,3.212021291E-1
3.949586901E1,9.983493388E-2,2.203444004E0,1.824541450E0
3.959592926E1,3.411267102E-1,1.498505592E0,1.809269905E0
3.969599301E1,-1.480473518E0,-1.709891260E-1,6.119739413E-1
3.979606839E1,6.288442612E-1,2.248515636E-1,5.673807859E-1
3.989613177E1,9.807026386E-1,-1.575979233E0,-2.122869730E0
3.999620114E1,2.055146247E-1,-7.665827870E-1,-7.734683752E-1
4.009626626E1,2.586598694E-1,-1.265048862E0,-1.210643277E-1
4.019633444E1,2.391121984E-1,1.381830335E0,-3.947319686E-1
4.029640512E1,1.353330493E0,2.211863697E-1,2.149521828E0
4.039646640E1,-1.677172065E0,1.927943826E0,1.177024245E0
4.049654059E1,-1.806206256E-2,3.977264166E-1,8.343288898E-1
4.059660397E1,1.487041414E-1,-2.158744574E0,-1.076457500E0
4.069666789E1,-1.674728632E0,-1.211903453E0,-2.727626324E0
4.079674746E1,-5.513474345E-1,-7.263981551E-2,-4.924703836E-1
4.089714191E1,-1.512306780E-1,9.951526523E-1,-5.755481124E-1
4.099719886E1,1.700844318E-1,2.942590952E0,1.847754359E0
4.109726797E1,4.303130209E-1,2.880282640E0,1.950379729E0
4.119733978E1,-1.255064249E0,-1.008485317E0,6.070870161E-1
4.129740293E1,7.198631763E-1,-8.795928359E-1,1.770379245E-1
4.139746584E1,-4.780435860E-1,-1.966454685E-1,-2.508936405E0
4.149753882E1,5.457665324E-1,-2.227772474E0,1.684857905E-1
4.159760291E1,-6.143349409E-2,-4.672587514E-1,-3.806820810E-1
4.169767083E1,3.447234631E-2,1.887626767E0,-8.868847042E-2
4.179773668E1,1.115703821E0,-6.737312078E-1,1.632729769E0
4.189780270E1,-1.623415947E0,1.440473437E0,1.947530061E-1
4.199787255E1,1.611726403E0,-2.497907430E-1,1.691372752E0
4.209794623E1,1.694804072E0,-8.001803160E-1,-1.720309615E0
4.219801161E1,-3.076121807E-1,-1.875914097E0,-1.612797260E0
4.229807915E1,-3.401297610E-3,-7.305417061E-1,-2.884414196E-1
4.239814390E1,2.096489538E-3,1.789888263E0,2.309986949E-2
4.249821875E1,1.134029746E0,5.400580168E-1,2.374320269E0
4.259827780E1,-1.719321728E0,2.630439043E0,3.218129873E-1
4.269833915E1,-9.306947589E-1,-7.720804811E-1,3.883972764E-1
4.279840899E1,2.837053537E-1,-2.856352806E0,-1.458248258E0
4.289848301E1,-7.211679816E-1,-3.540521622E0,-2.082552671E0
4.299854609E1,-3.442640901E-1,-3.481400311E-1,-1.089285731E0
4.309860810E1,4.345890880E-1,8.668709397E-1,-8.870893717E-1
4.319867575E1,1.040567398E0,2.958473682E0,1.114105225E0
4.329874649E1,-1.501853704E0,4.158212662E0,6.382411718E-1
4.339880891E1,-1.518347025E0,-1.369506717E0,8.685373664E-1
4.349888269E1,4.504715800E-1,-6.694551110E-1,6.341698021E-2
4.359894984E1,6.477810740E-1,-6.193642020E-1,-1.577977896E0
4.369901299E1,2.707354724E-3,-8.637103438E-1,-1.188246012E0
4.379907713E1,4.101544917E-1,1.894213706E-1,-9.096913338E-1
4.389914928E1,3.625069857E-1,2.210774422E0,2.564503849E-1
4.399921079E1,9.727613330E-1,-3.786833286E-1,2.569797039E0
4.409927954E1,-1.989935040E0,1.514388084E0,1.007814646E0
4.419935212E1,-1.212982833E-1,1.057328358E-1,2.252962589E-1
4.429941267E1,1.675256371E0,-3.571065187E0,-1.733748555E0
4.439948038E1,1.768039614E-1,-2.129423141E0,-1.606688619E0
4.449954716E1,-1.243526191E-1,-1.367063284E0,-5.486699939E-1
4.459961364E1,5.768522620E-2,3.238117397E-1,-6.983319521E-1
4.469967439E1,7.723975778E-1,3.635312319E0,1.962597013E0
4.479974827E1,-1.807897210E0,3.136846304E0,5.533308983E-1
4.489981635E1,-3.094447851E-1,-7.671936154E-1,1.383496881E0
4.499988427E1,-4.774327278E-1,-6.383010149E-1,-7.917943597E-1
4.509995271E1,-1.128004313E0,-2.721962452E0,-2.356220245E0
4.520002079E1,-4.878174365E-1,-1.379280567E0,-1.029420853E0
4.530008775E1,1.016743660E0,-7.219895720E-1,-8.991020173E-2
4.540015136E1,-2.697385550E-1,2.983519077E0,3.688496053E-1
4.550022275E1,1.026517510E0,2.179620266E0,2.209997654E0
4.560028693E1,-1.503686309E0,2.566165328E-1,1.120213866E0
4.570035701E1,-1.439003050E-1,6.316878200E-1,-4.600945413E-1
4.580042432E1,2.299560785E0,-1.809329748E0,-1.424039960E0
4.590048887E1,7.021480799E-1,-2.072612524E0,-7.673597336E-1
4.600055258E1,4.736844599E-1,-3.493617773E-1,-1.082361639E-1
4.610062640E1,4.944538772E-1,1.208344579E0,4.692361504E-2
4.620069799E1,2.388136148E0,-5.577199627E-4,1.315079808E0
4.630076507E1,-1.082800150E0,1.398934603E0,6.840561032E-1
4.640082928E1,-1.756653041E-1,3.250334561E-1,1.152589679E0
4.650088893E1,-2.819558382E-1,-1.374393702E0,-1.225508690E0
4.660096905E1,-1.432215095E0,-2.145916462E0,-2.526651621E0
4.670102406E1,-4.285635054E-1,6.005336642E-1,-6.592366099E-1
4.680109651E1,1.152355671E0,-3.212619722E-1,-1.864269078E-1
4.690115979E1,2.177319229E-1,2.645710468E0,8.434919119E-1
4.700122870E1,-2.124936342E0,3.233362675E0,1.439085484E0
4.710129572E1,-1.517736197E0,-2.123314381E0,1.776283026E0
4.720135813E1,1.292854786E0,1.769118905E0,-7.154362202E-1
4.730143175E1,-5.366866589E-1,-4.611501098E-1,-2.371491909E0
4.740149239E1,9.758156538E-1,-1.500231981E0,5.026291013E-1
4.750156710E1,-1.065085053E0,-4.073939919E-1,4.509101808E-2
4.760162989E1,5.634816289E-1,3.037885904E0,6.028109789E-1
4.770169644E1,1.942204475E0,-3.640225530E-1,1.897845387E0
4.780176139E1,-2.135321140E0,2.382905930E-1,-2.481243014E-1
4.790183214E1,6.623734534E-2,7.807389498E-1,5.612721443E-1
4.800190115E1,1.730234265E0,-3.473937511E0,-1.329355836E0
4.810196943E1,-9.465771914E-1,-3.516087055E0,-2.133254290E0
4.820206692E1,2.629359365E-1,-1.770845175E0,-6.012043953E-1
4.830213163E1,2.408763953E-2,1.750792980E0,-1.081955314E0
4.840219861E1,9.330551028E-1,1.942604661E0,1.705422759E0
4.850226469E1,-1.835997105E0,3.520469427E0,1.063403487E0
4.860233440E1,-7.724806666E-1,-7.861304283E-1,1.214287162E0
4.870239822E1,-1.073168125E-2,-7.788000703E-1,-7.307078242E-1
4.880246560E1,-1.517125368E0,-1.721975923E0,-2.477171659E0
4.890253832E1,-1.200765595E-1,-6.896136999E-1,-4.924703836E-1
4.900260530E1,3.392941058E-1,-6.828942299E-1,7.563427836E-2
4.910266785E1,3.935926780E-2,2.878450155E0,5.734894276E-1
4.920273533E1,8.896837234E-1,1.793553472E0,1.162363529E0
4.930280304E1,-1.525677443E0,-7.849087119E-1,1.118992090E0
4.940286888E1,5.555403829E-1,9.035228491E-1,1.220395803E0
4.950294149E1,3.777786195E-1,-2.233880997E0,-1.522389174E0
4.960300271E1,-1.933803856E-1,-1.999919653E0,-8.901436925E-1
4.970306976E1,-5.410310999E-2,-5.588885546E-1,-5.853219032E-1
4.980313578E1,4.791822433E-1,5.864837766E-1,-9.408454299E-1
4.990320417E1,1.903109074E0,1.781947017E0,2.263142824E0
5.000327728E1,-1.925794244E0,3.065985918E0,3.841212094E-1
5.010333783E1,-1.418165207E0,-8.974404633E-2,1.234445691E0
5.020340555E1,-2.453039438E-1,-1.849035978E0,-3.983971477E-1
5.030347772E1,-1.293548703E0,-2.528318167E0,-2.852242947E0
5.040354344E1,-6.747421622E-1,-1.141786575E-1,-9.157999754E-1
5.050361068E1,7.430760264E-1,-5.582777262E-1,-3.892341554E-1
5.060367590E1,1.945190430E-1,2.227878571E0,7.695772052E-1
5.070373875E1,3.301311433E-1,2.349440813E0,1.359673023E0
5.080381114E1,-1.378458977E0,-1.893150806E-1,1.031638384E0
5.090388255E1,1.028892547E-1,6.616201997E-1,3.309759498E-1
5.100395030E1,1.266587496E0,-1.752519250E0,-1.601801634E0
5.110400911E1,5.866945386E-1,-1.535051227E0,2.330451040E-3
5.120407659E1,2.940900922E-1,-1.056743741E0,-5.162941217E-1
5.130414630E1,-5.593570694E-2,1.785612345E0,-7.936269641E-1
5.140421782E1,1.465729594E0,7.837932706E-1,2.164182663E0
5.150427840E1,-1.328368068E0,1.684208632E0,8.673155904E-1
5.160434771E1,-4.988130331E-1,-2.271887213E-1,-7.402770221E-2
5.170440773E1,-9.625281394E-2,-2.478838205E0,-2.210415900E-2
5.180447828E1,-7.126158476E-1,-4.286388397E0,-8.718177080E-1
5.190454632E1,-1.015604973E0,3.488571942E-1,-6.329694390E-1
5.200461497E1,-4.603284895E-1,6.921634674E-1,-7.685815096E-1
5.210468005E1,8.707469106E-1,1.165583968E0,1.150757074E0
5.220475816E1,-5.757820606E-1,2.869897842E0,7.176536322E-1
5.230482041E1,-1.533007860E0,7.471413612E-1,8.050073981E-1
5.240488240E1,8.194342256E-1,-1.097671747E0,-4.490989745E-1
5.250495308E1,-1.112732530E0,1.265022457E-1,-1.814382792E0
5.260501822E1,4.668965191E-2,-1.708536983E0,-2.010876834E-1
5.270508730E1,-9.991800785E-2,-3.047686219E-1,-9.958233833E-1
5.280515939E1,2.800401747E-1,2.646321297E0,-2.487351745E-1
5.290522343E1,1.763831854E0,2.651686668E-1,1.758568048E0
5.300529962E1,-1.181760430E0,2.871598303E-1,7.781293392E-1
5.310535420E1,9.141182899E-1,4.972974658E-1,1.351731777E0
5.320541955E1,1.452901483E0,-3.951023102E0,-9.866604209E-1
5.330549626E1,-1.413889170E0,-1.645617843E0,-2.945705414E0
5.340556051E1,7.784377784E-2,-1.084843516E0,-1.583271027E-1
5.350563036E1,-2.569103837E-1,1.259046435E0,-6.964994073E-1
5.360569190E1,6.575548649E-1,2.738562107E0,1.729857445E0
5.370575609E1,-1.641130924E0,3.621873379E0,1.188019872E0
5.380582374E1,-1.476808190E0,-1.707926035E0,4.329904616E-1
5.390589062E1,-2.966166139E-1,-2.088495016E0,-1.208404422E0
5.400596113E1,-6.777964830E-1,-1.337130904E0,-1.166865587E0
5.410602428E1,-1.772467017E0,1.839235872E-1,-1.568204045E0
5.420609662E1,4.009914994E-1,-5.577199627E-4,-9.677235484E-1
5.430616194E1,2.096489538E-3,3.067207575E0,7.671337128E-1
5.440622892E1,5.463090166E-2,-2.314647883E-1,1.800717831E0
5.450629124E1,-1.788349509E0,-6.957223415E-1,1.580195427E0
5.460635992E1,5.036168694E-1,3.286986351E-1,6.657301188E-1
5.470642587E1,6.465592980E-1,-2.787935734E0,-2.381876707E0
5.480649381E1,2.519403696E-1,-1.127604127E0,-8.773154616E-1
5.490656859E1,3.796111941E-1,-2.087273359E0,2.356809676E-1
5.500662851E1,3.392941058E-1,1.732467055E0,-9.762756824E-1
5.510669806E1,2.896986723E0,8.167799711E-1,2.684028864E0
5.520676157E1,-2.081564903E0,2.422133684E0,1.330556124E-1
5.530683219E1,-3.577715531E-2,4.329202231E-3,1.126322508E0
5.540689597E1,-2.416387498E-1,-1.319415808E0,-1.075235844E0
5.550885285E1,2.958542667E-2,-2.414697170E0,-1.593249559E0
5.560892099E1,-1.439003050E-1,-7.610849738E-1,-6.390780807E-1
5.570898231E1,4.663540721E-1,7.471413612E-1,-2.149329334E-2
5.580905579E1,3.080715612E-2,2.505822182E0,1.693205476E0
5.590912760E1,2.201753855E-1,4.788015366E0,1.016977549E0
5.600918844E1,-1.281942248E0,7.630238533E-1,4.000037313E-1
5.610925556E1,4.913995266E-1,-7.757457495E-1,-4.898223281E-2
5.620932267E1,-3.015577793E0,-1.772066951E0,-3.466162443E0
5.630939115E1,2.690446079E-1,-1.646839619E0,2.650024891E-1
5.640945756E1,-9.820074439E-1,-1.893629193E0,-6.720647812E-1
5.650952540E1,4.180273041E-2,2.550415516E0,2.527852058E-1
5.660959311E1,1.447403669E0,2.148466349E0,2.482443333E0
5.670965396E1,3.569407761E-2,3.610745072E-1,1.883184552E0
5.680972618E1,6.942067742E-1,7.213524729E-2,7.013648748E-2
5.690979326E1,1.634939313E0,-1.431204081E0,-2.303685904E0
5.700985928E1,-7.932500839E-1,-3.582671642E0,-1.818658829E0
5.710992610E1,-1.738326997E-1,-1.227175117E0,-1.001932025E0
5.720999635E1,1.223216057E0,1.657941461E0,-4.503207207E-1
5.731006816E1,1.350276113E0,1.441084266E0,1.706644535E0
5.741013208E1,-1.603868246E0,4.502130032E0,1.049964309E0
5.751019519E1,-1.872038126E0,-1.399675570E-2,1.321188450E0
5.761027177E1,-6.283164620E-1,-1.115386844E0,-1.290871263E0
5.771032908E1,-2.089506149E0,-1.932113647E0,-2.902333736E0
5.781040050E1,-6.142665148E-1,-1.192355871E0,-8.162289858E-1
5.791047085E1,1.932973117E-1,-1.538849026E-1,-6.549605727E-1
5.801053166E1,5.323275328E-1,1.839979291E0,1.015145063E0
5.811060581E1,-7.999696136E-1,2.114257812E0,1.849791557E-1
5.821067239E1,-3.656443655E-1,-3.114881217E-1,1.369446874E0
5.831073670E1,9.446615577E-1,3.421376944E-1,7.653011680E-1
5.841080425E1,-9.972790480E-1,1.900322437E-1,-1.741078973E0
5.851086619E1,1.975733638E-1,-3.811267614E-1,-3.764060140E-1
5.861093420E1,1.401520371E-1,-6.480748653E-1,-5.431722403E-1
5.871100062E1,7.333021760E-1,1.677489161E0,7.243731618E-1
5.881106658E1,1.138916731E0,-1.325046122E-1,1.024918795E0
5.891113962E1,-1.477419138E0,7.056024671E-1,9.693301320E-1
5.901120520E1,-1.266670704E0,6.506246328E-1,4.800270796E-1
5.911127135E1,9.935307503E-1,-2.866126537E0,-1.441755056E0
5.921133643E1,4.009914994E-1,-3.735388041E0,-1.948773146E0
5.931140374E1,-3.803051412E-1,-2.711710334E-1,-7.771335840E-1
5.941147092E1,5.726446509E-1,1.069067359E0,-7.443393115E-3
5.951153960E1,1.795596838E0,9.853788018E-1,2.201445341E0
5.961160438E1,-1.354024410E0,4.652402878E0,3.615192175E-1
5.971167693E1,-1.256285906E0,-1.422041178E0,9.986516833E-1
5.981173795E1,-4.108484089E-1,-1.048802495E0,-5.786024332E-1
5.991180703E1,-2.593469858E0,-2.815557122E-1,-2.681811571E0
6.001187337E1,-6.815301627E-2,-4.709239602E-1,-4.717009962E-1
6.011194175E1,7.589585781E-1,-1.159979939E0,-3.874015808E-1
6.021201327E1,5.475991964E-1,1.620678544E0,2.466765493E-1
6.031209271E1,7.601802349E-1,3.309110165E0,9.332890511E-1
6.041214693E1,-7.284983397E-1,-7.888102904E-3,1.151367903E0
6.051221481E1,2.286590822E-2,-9.340924025E-2,-8.441241086E-2
6.061228176E1,9.568788409E-1,-6.309706569E-1,-1.932279825E0
6.071234678E1,-6.136556864E-1,-1.798944950E0,-9.261847138E-1
6.081241019E1,2.806510329E-1,-7.543654442E-1,-2.149329334E-2
6.091247997E1,9.250454605E-2,1.889459372E0,7.420882583E-1
6.101254675E1,3.064974785E0,4.972974658E-1,2.384094000E0
6.111261317E1,-1.342417955E0,1.608461261E0,2.417896241E-1
6.121268295E1,5.761681125E-3,-6.103337929E-2,7.145993114E-1
6.131275703E1,-2.074302882E-1,-3.593667030E0,-1.515669703E0
6.141281568E1,-5.476822257E-1,-2.479449034E0,-1.077679276E0
6.151288046E1,-4.798761904E-1,-1.010928869E0,-4.271078110E-1
6.161295354E1,-1.842174083E-1,1.586470246E0,-9.432889223E-1
6.171301216E1,1.926321983E0,2.078216791E0,1.755513668E0
6.181308251E1,-1.413278341E0,4.095904350E0,3.511344790E-1
6.191314859E1,-8.213498592E-1,-8.918101192E-1,1.145259261E0
6.201321894E1,-1.341264695E-1,-1.871027112E0,-7.264317870E-1
6.211328645E1,-1.351580977E0,-1.834986091E0,-2.916383743E0
6.221335217E1,7.784377784E-2,-6.102012396E-1,-6.201412082E-1
6.231344292E1,4.730736017E-1,-2.772796750E-1,2.187814005E-2
6.241348403E1,8.707469106E-1,2.363490820E0,1.199015498E0
6.251355374E1,-4.664371610E-1,2.955419302E0,6.681736112E-1
6.261361729E1,-1.081578493E0,-4.379372299E-1,6.871104240E-1
6.271389068E1,1.642269611E0,-1.031830832E-1,4.891900718E-1
6.281395977E1,-6.441988945E-1,-2.136142492E0,-2.652489901E0
6.291403695E1,1.315456748E0,-3.318777800E0,5.820415616E-1
6.301409859E1,1.774148047E-1,-6.529617906E-1,-6.519062519E-1
6.311416634E1,-5.030890703E-1,2.879060984E0,-5.480591655E-1
6.321423319E1,1.874398470E0,-4.515088350E-2,2.194725752E0
6.331429680E1,-1.423663020E0,1.275539756E0,1.449470162E0
6.341436415E1,4.962864816E-1,-1.074591354E-1,4.354338944E-1
6.351443563E1,-1.634479910E-1,-2.819700956E0,-2.141195774E0
6.361449824E1,-2.074302882E-1,-3.945525408E0,-1.606688619E0
6.371456069E1,5.402003601E-2,3.421376944E-1,-4.081709981E-1
6.381463914E1,2.818727791E-1,2.490550756E0,2.625590563E-1
6.391470295E1,1.217107415E0,1.408708334E0,2.709074497E0
6.401477396E1,-1.140832424E0,4.557718754E0,5.692133904E-1
6.411483854E1,-1.435269356E0,-1.636587381E-1,5.258419514E-1
6.421490056E1,3.606743813E-1,-1.425095439E0,-6.561822891E-1
6.431497784E1,-2.162810087E0,-1.791614652E0,-2.583462238E0
6.441504048E1,6.684820354E-2,-1.026200414E0,-6.867254972E-1
6.451510239E1,5.188884735E-1,-6.499074697E-1,-5.914305449E-1
6.461516831E1,-3.686986864E-1,2.212607145E0,-1.589379758E-1
6.471523228E1,1.559192061E0,9.701071978E-1,1.270486712E0
6.481530420E1,-1.419386983E0,1.552872539E0,1.006592870E0
6.491536961E1,1.810868502E0,1.307782978E-1,1.602186561E0
6.501543690E1,9.538245201E-1,-3.050607920E0,-1.642729640E0
6.511550661E1,4.303130209E-1,-2.333452225E0,-6.659561396E-1
6.521557222E1,5.427122116E-1,-2.932100058E0,-2.267440259E-1
6.531564927E1,-3.961876631E-1,9.664419293E-1,-1.200463295E0
6.541570622E1,6.954285502E-1,4.875236154E-1,2.159906387E0
6.551578344E1,-1.250177264E0,4.554664612E0,8.758677244E-1
6.561583948E1,-1.167710423E0,-8.765384555E-1,8.795329332E-1
6.571590836E1,1.572562605E-1,4.380435050E-1,-9.341259599E-1
6.581598521E1,-1.792014718E0,-4.731098175E0,-2.099656820E0
6.591604569E1,-2.013216466E-1,6.066423059E-1,-5.957065821E-1
6.601610807E1,4.761279225E-1,-1.740434617E-1,-1.036140561E0
6.611617799E1,6.435049772E-1,1.598076701E0,4.610902369E-1
6.621625147E1,1.632495880E0,1.266376853E0,1.594245195E0
6.631630952E1,-1.708937049E0,1.172914386E0,1.180689454E0
6.641638187E1,9.623766541E-1,1.283348501E-1,6.706169844E-1
6.651645075E1,1.173125148E0,-3.185609102E0,-1.650060058E0
6.661651306E1,-8.292911649E-1,-2.002363205E0,-2.139158547E-1
6.671657714E1,3.080715612E-2,-1.154003814E-1,-1.843896694E-2
6.681665056E1,9.648201466E-1,1.936496019E0,2.839393318E-1
6.691672567E1,1.435186386E0,-3.542487025E-1,3.051158905E0
6.701678048E1,-1.286218286E0,4.269390106E0,2.265179902E-1
6.711684650E1,-1.078524113E0,1.043785457E-2,-4.837136343E-2
6.721692008E1,-8.586810529E-2,-7.091614008E-1,-1.542547703E0
6.731697970E1,-2.256272316E0,-1.780008197E0,-2.471062899E0
6.741705031E1,1.141360283E0,-5.485038161E-1,-3.373106420E-1
6.751711756E1,1.085160494E0,-1.090341330E0,-2.994369864E-1
6.761718177E1,4.529150426E-1,2.675642729E0,3.694604635E-1
6.771724525E1,-6.270947456E-1,3.797802448E0,-1.790965199E-1
6.781731971E1,-9.911704063E-1,-8.936427236E-1,9.326782227E-1
6.791739339E1,1.464507937E0,-2.045867145E-1,3.786234558E-1
6.801745250E1,-4.188438892E0,-2.037793398E0,-3.590167999E0
6.811752498E1,1.316067576E0,-5.087975860E-1,-2.047528625E-1
6.821758626E1,1.664192379E-1,-1.672495842E0,-2.908848524E-1
6.831765264E1,-3.815268874E-1,2.608447790E0,-1.076252908E-1
6.841772435E1,1.986186743E0,1.904120088E0,1.688929439E0
6.851779563E1,-1.093795776E0,1.190629482E0,1.047520876E0
6.861785408E1,3.954937160E-1,2.963227928E-1,2.320157737E-1
6.871791729E1,9.135074615E-1,-4.193536758E0,-2.044678926E0
6.881799114E1,-9.172556996E-1,-3.293732166E0,-8.180615902E-1
6.891805838E1,1.559802890E0,-7.989585996E-1,-4.387142658E-1
6.901813686E1,-5.592886806E-1,2.601117373E0,-1.488180757E0
6.911819058E1,2.400964260E0,6.750592589E-1,2.188617229E0
6.921827725E1,-1.617307305E0,3.693344593E0,2.546178102E-1
6.931834090E1,-8.121868968E-1,3.323638439E-1,7.689663172E-1
6.941839075E1,-8.097434044E-1,-3.346266508E0,-1.387998939E0
6.951846417E1,-1.528120995E0,-3.633373260E0,-2.182734728E0
6.961853041E1,4.681866765E-1,-9.009730816E-1,2.753871977E-1
6.971859926E1,1.069888949E0,-3.682985902E-1,-3.232607245E-1
6.981866237E1,-1.170222312E-1,4.039094448E0,-1.668792218E-1
6.991872902E1,-2.459148020E-1,2.821028709E0,1.027362347E0
7.001879398E1,-1.173208237E0,-1.460762043E-2,1.445194244E0
7.011886069E1,4.358108342E-1,-4.881607369E-2,-3.798665479E-2
7.021892850E1,-1.253231525E0,-1.998087049E0,-3.048330545E0
7.031900234E1,7.363564968E-1,-6.444096565E-1,1.454775594E-2
7.041906410E1,1.006969810E0,-4.715348184E-1,1.874226183E-1
7.051913534E1,-2.190367281E-1,3.651194811E0,-1.534401923E-1
7.061919585E1,3.491358995E0,-2.845357180E0,2.902107716E0
7.071925997E1,-1.595316172E0,2.536976576E0,1.093335867E0
7.081933219E1,-4.285635054E-1,2.022495419E-1,7.139884830E-1
7.091940180E1,-5.024781823E-1,-3.901543140E0,-7.581967711E-1
7.101947528E1,-2.074302882E-1,-3.113527060E0,-1.367840290E0
7.111953363E1,-6.215969324E-1,5.550932605E-3,-1.256662846E0
7.121959988E1,3.857198358E-1,-1.923694015E-1,-1.532773972E0
7.131966612E1,-8.109651208E-1,2.918156385E0,1.483272463E-1
7.141973324E1,-1.147551894E0,4.632854939E0,1.674879551E0
7.151980262E1,-2.269779742E-1,-3.304249644E-1,2.327894449E0
7.161986597E1,6.667178869E-1,6.432942748E-1,-9.768865108E-1
7.171993521E1,-3.497619033E-1,-3.593056202E0,-2.630498886E0
7.182000800E1,8.310406208E-1,3.488571942E-1,-7.606402636E-1
7.192007048E1,8.267645836E-1,-9.803855419E-1,-3.006587327E-1
7.202013906E1,-8.195172548E-1,3.093474865E0,2.246854007E-1
7.212020761E1,2.713116407E0,-8.991404772E-1,3.914311409E0
7.222027559E1,-1.799955964E0,2.122199059E0,3.969494104E-1
7.232033777E1,7.308586836E-1,-1.979150295E0,1.098833561E0
7.242040848E1,-3.173860610E-1,-2.342614889E0,-2.158299923E0
7.252047416E1,-4.127494246E-2,-2.181957483E0,-1.046525121E0
7.262053691E1,7.675105929E-1,-1.413488984E0,-7.252100706E-1
7.272060949E1,3.692265153E-1,2.098986149E0,-1.213902235E0
7.282067791E1,2.104083776E0,-4.087482393E-2,1.875243306E0
7.292074075E1,-2.162810087E0,4.948672295E0,7.451425791E-1
7.302080673E1,-5.751711130E-1,-1.853312016E0,2.269251347E0
7.312087985E1,-2.079732180E0,-2.202116013E0,-2.357441902E0
7.322094243E1,-1.633189797E0,-1.227175117E0,-2.783825874E0
7.332100914E1,-8.842689991E-1,4.869127572E-1,-9.665018320E-1
7.342109119E1,1.460231781E0,2.883815169E-1,6.907755733E-1
7.352114724E1,4.541367888E-1,2.563854456E0,1.624788523E0
7.362120828E1,-4.303961098E-1,4.466088772E0,9.051892757E-1
7.372128146E1,-1.365019917E0,-3.591356277E-1,1.354786158E0
7.382135852E1,-5.043792352E-2,-5.307887793E-1,-7.722467184E-1
7.392141070E1,-1.576379299E0,-3.197826385E0,-2.294523001E0
7.402147878E1,1.553552505E-2,-3.843136504E-2,-8.534917831E-1
7.412154600E1,1.153577566E0,-7.561979890E-1,-6.152543426E-1
7.422161294E1,-6.283164620E-1,3.752598286E0,-1.436663419E-1
7.432168183E1,1.834081292E0,5.644926429E-1,1.736576915E0
7.442175411E1,-1.687556744E0,1.202846766E0,1.916986704E-1
7.452182172E1,1.977634668E0,-6.169207692E-1,1.854473829E0
7.462187810E1,5.640925169E-1,-2.045123577E0,-1.610353708E0
7.472194415E1,1.482223034E0,-2.099490643E0,-2.340743989E-1
7.482201726E1,5.524860620E-1,-1.786116838E0,-1.467206776E-1
7.492208674E1,4.510824680E-1,2.467337847E0,-6.787843108E-1
7.502215789E1,2.623319387E0,-8.166736960E-1,2.722513437E0
7.512221740E1,-1.925183296E0,3.376305342E0,-5.203655735E-2
7.522229062E1,-1.335155964E-1,-1.459436566E-1,1.542932630E0
7.532235566E1,-1.233683944E0,-1.762293100E0,-1.673272967E0
7.542242321E1,-1.259950995E0,-3.164228678E0,-2.247486353E0
7.552248872E1,2.965335250E-1,-1.193577528E0,-6.293041706E-1
7.562255894E1,2.806510329E-1,-1.593826860E-1,-5.230136514E-1
7.572263055E1,-3.039470017E-1,3.312775373E0,4.753447697E-2
7.582268650E1,1.276972294E0,3.282232285E0,1.071344614E0
7.592275488E1,-1.469546407E-1,1.898996718E-2,1.112883449E0
7.602282983E1,6.624418497E-1,6.671179533E-1,4.439860284E-1
7.612288938E1,-1.519568801E0,-1.832542658E0,-1.440533161E0
7.622295676E1,2.580490410E-1,-1.597970366E0,-2.872196734E-1
7.632303448E1,3.105834424E-1,-1.531996965E0,-9.170217514E-1
7.642309632E1,-1.078592539E-1,2.340277910E0,2.912697196E-1
7.652316544E1,2.917756319E0,9.572789669E-1,2.994348288E0
7.662323186E1,-1.226353526E0,2.474668264E0,4.922443926E-1
7.672329670E1,4.895669520E-1,-1.351791620E0,6.913864613E-1
7.682336099E1,-6.136556864E-1,-4.690781116E0,-1.513226151E0
7.692342610E1,-4.975912869E-1,-2.216166019E0,-2.229771137E0
7.702350912E1,3.197464347E-1,-7.507002354E-1,-7.673597336E-1
7.712356843E1,4.840691388E-1,2.197946310E0,5.679916143E-1
7.722374975E1,1.218329191E0,2.052560329E0,2.767106533E0
7.732382543E1,-1.069361210E0,4.773964882E0,6.797800064E-1
7.742388525E1,-2.384553909E0,-4.446567297E-1,6.168609262E-1
7.752394973E1,1.279347241E-1,-2.338949919E0,-5.651633739E-1
7.762401924E1,-1.559885979E0,-2.504494429E0,-2.469841242E0
7.772408212E1,5.897488594E-1,-6.083686352E-1,-7.948486805E-1
7.782416187E1,2.196935415E0,-1.317583084E0,2.967674732E-1
7.792421841E1,-1.469546407E-1,4.051311493E0,-3.244824409E-1
7.802428649E1,4.193174541E-1,1.492396951E0,8.740351796E-1
7.812435884E1,-1.773688674E0,-3.049011528E-2,9.937647581E-1
7.822442065E1,1.300796032E0,-8.241366595E-2,7.811836600E-1
7.832449086E1,-1.456038833E0,-2.425692558E0,-2.615226984E0
7.842455328E1,4.516932964E-1,-1.306587696E0,5.853005126E-2
7.852462022E1,-1.060266569E-1,4.246045053E-1,-1.164422154E0
7.862468754E1,1.224369407E-1,2.509861998E-2,2.248900384E-2
7.872475196E1,1.816366196E0,-2.229126692E-1,1.608906031E0
7.882482341E1,-1.076691508E0,3.765426397E0,9.021349549E-1
7.892489256E1,-5.452387929E-1,-7.813760638E-2,9.803256989E-1
7.902495910E1,-1.774910569E0,-2.329175949E0,-2.132643461E0
7.912502988E1,-2.084619045E0,-2.060395241E0,-1.600579977E0
7.922509096E1,5.610381961E-1,-1.880190015E0,-7.331513166E-1
7.932515871E1,-2.905763872E-2,-5.485038161E-1,-1.003153801E0
7.942523539E1,1.539033413E0,3.529021740E0,2.686676979E-1
7.952529237E1,2.012385577E-1,5.284037590E0,6.956624985E-1
7.962536325E1,-6.075469851E-1,-5.026889443E-1,1.808048129E0
7.972542580E1,1.743604839E-1,-8.307235837E-1,-7.447577715E-1
7.982549334E1,-1.281942248E0,-1.225342512E0,-2.169906139E0
7.992556209E1,1.019797921E0,-1.787338495E0,-2.145267129E-1
8.002562790E1,3.429592848E-1,-1.597970366E0,9.049968794E-3
8.012569505E1,-1.400450110E0,3.197321892E0,-8.196895570E-2
8.022576273E1,3.121174335E0,1.477736235E0,2.313844442E0
8.032582901E1,-1.546446919E0,2.241928816E0,3.877864182E-1
8.042589592E1,1.487041414E-1,1.593564078E-2,1.057905674E0
8.052596333E1,-2.214801908E-1,-2.550309420E0,-2.311016083E0
8.062603204E1,8.700676262E-2,-2.302908897E0,-1.267047524E0
8.072609886E1,5.219427943E-1,-6.164424494E-2,-7.123818994E-1
8.082616661E1,1.765053630E0,2.773859501E-1,6.315216422E-1
8.092623086E1,7.119218707E-1,9.707180262E-1,1.135485530E0
8.102629851E1,-1.730928183E0,5.674991131E0,1.269469559E-1
8.112636595E1,-1.256427635E-2,-6.993875504E-1,1.509334922E0
8.122643837E1,-9.080927372E-1,-1.748854041E0,-1.860197663E0
8.132650622E1,-2.979536772E0,-2.814203024E0,-2.727626324E0
8.142657486E1,1.515820503E0,-1.321248412E0,-1.583271027E-1
8.152663611E1,1.430910230E0,-3.347010314E-1,-2.682828605E-1
8.162670142E1,-9.129796624E-1,3.543071508E0,1.191074252E0
8.172677124E1,3.380723894E-1,4.193643093E0,-1.130100718E-4
8.182683753E1,-1.028433204E0,-1.651115656E0,1.604629993E0
8.192690598E1,1.303239465E0,7.581369281E-1,6.632866263E-1
8.202697596E1,-1.941676736E0,-3.174002647E0,-3.029393911E0
8.212703857E1,1.187175035E0,-8.759276271E-1,-1.357455611E0
8.222711322E1,8.719686270E-1,-2.259669900E-1,-7.154362202E-1
8.232717407E1,-1.750544310E-1,2.379373312E0,3.059304953E-1
8.242724375E1,1.593400478E0,-4.293851256E-1,1.699314117E0
8.252730647E1,-1.898305297E0,2.754444599E0,5.502765775E-1
8.262736998E1,1.112649560E0,-6.725094318E-1,2.469004393E0
8.272743726E1,-1.992989421E0,-4.302270889E0,-1.373338103E0
8.282750484E1,-3.613683283E-1,-6.877811551E-1,-1.742300630E0
8.292757443E1,6.642743945E-1,-1.575368285E0,-5.431722403E-1
8.302764571E1,6.783243418E-1,9.249031544E-1,-3.244824409E-1
8.312770952E1,8.780772686E-1,7.721868157E-1,1.189241529E0
8.322778114E1,-8.231824636E-1,5.535102844E0,-1.742096096E-1
8.332784455E1,-8.244041800E-1,-1.476408243E0,1.633951545E0
8.342791314E1,-1.476808190E0,-2.451349020E0,-9.121348262E-1
8.352798676E1,-1.708937049E0,-2.477616310E0,-2.752671957E0
8.362804537E1,1.816366196E0,-1.987091541E0,-6.775625348E-1
8.372811395E1,-5.721167922E-1,-3.566921651E-1,-1.249332428E0
8.382818091E1,-1.065085053E0,2.117922783E0,7.029928565E-1
8.392824615E1,5.756989717E-1,5.717141151E0,3.932842016E-1
8.402832104E1,-9.539076090E-1,1.610293984E0,1.199015498E0
8.412837888E1,6.264007688E-1,-1.212514400E0,8.404375315E-1
8.422844790E1,-2.029641390E0,-2.226550817E0,-1.738024712E0
8.432851341E1,-1.234905601E0,1.381086856E-1,-1.677549005E0
8.442858760E1,2.595830441E0,-1.821547031E0,-6.818386316E-1
8.452892968E1,3.209681511E-1,2.086768866E0,4.030580521E-1
8.462899249E1,1.539033413E0,1.904120088E0,1.049353480E0
8.472906067E1,-1.592261791E0,3.840563059E0,1.580806255E0
8.482913235E1,4.840691388E-1,-5.332322121E-1,2.334003210E0
8.492920020E1,-1.038817883E0,-1.615074635E0,-8.779264092E-1
8.502926871E1,-2.021089315E0,-3.431176901E0,-2.459456444E0
8.512933346E1,1.503603220E0,-1.188079715E0,3.767908216E-1
8.522939754E1,1.112038732E0,-1.469688654E0,4.042797983E-1
8.532947022E1,-5.299671888E-1,4.920572758E0,5.686025620E-1
8.542953860E1,6.233464479E-1,6.020740986E0,1.586304069E0
8.552960341E1,-1.194588542E0,-3.843136504E-2,1.772007108E0
8.562966743E1,8.261536956E-1,3.107471392E-3,3.932842016E-1
8.572973095E1,-1.298435688E0,-1.967543840E0,-1.650060058E0
8.582980547E1,7.571259141E-1,-8.667646646E-1,2.393461615E-1
8.592987305E1,-4.860532656E-2,-8.478277922E-1,-4.032840431E-1
8.602993740E1,1.533535600E0,1.369613051E0,1.277206182E0
8.613001015E1,7.815605402E-1,1.662217498E0,2.634548903E0
8.623007774E1,-9.386360049E-1,5.304807186E0,1.202069879E0
8.633014209E1,-1.915477961E-1,4.453738928E-1,1.161141872E0
8.643020397E1,5.402003601E-2,-2.337117195E0,-5.260679722E-1
8.653027175E1,-2.217176914E0,-2.380488873E0,-2.438076258E0
8.663033533E1,2.836369537E-2,1.045110971E-1,-1.320599020E-1
8.673040141E1,-4.872065783E-1,-4.055613577E-1,-1.390442252E0
8.683047283E1,1.120522320E-1,1.686041236E0,-1.980333626E-1
8.693055078E1,2.253134966E0,1.122212648E0,8.734242916E-1
8.703060619E1,-1.327146292E0,2.405640364E0,1.493452549E0
8.713067267E1,5.555403829E-1,-4.073939919E-1,1.792776465E0
8.723074402E1,-1.543392539E0,-1.946163535E0,-2.188232422E0
8.733080824E1,1.670301110E-1,-1.473353863E0,-1.636010170E0
8.743088098E1,-2.587429881E-1,-1.016426682E0,-1.783839464E0
8.753094283E1,4.058784246E-1,-1.057354569E0,-9.646692276E-1
8.763101184E1,2.739315331E-1,9.688854218E-1,-3.187800199E-2
8.773107589E1,-3.662552536E-1,4.839327812E0,3.169260621E-1
8.783114717E1,-1.227575183E0,-1.074458838E0,1.389605522E0
8.793121046E1,2.162116051E0,-1.973041654E0,-5.181267262E-1
8.803128354E1,-1.142665029E0,-4.012720585E0,-4.015330315E0
8.813135102E1,1.096766949E0,-4.018961787E-1,6.223586798E-1
8.823142263E1,1.364868432E-1,-7.610849738E-1,-1.050190330E0
8.833147921E1,-4.615502357E-1,2.803924561E0,-1.227341294E0
8.843154629E1,2.394244909E0,1.097167134E0,1.390827179E0
8.853161343E1,-1.440767169E0,2.296295643E0,1.057905674E0
8.863167825E1,7.632345557E-1,-8.771493435E-1,2.284523010E0
8.873174657E1,-1.459093094E0,-4.271727562E0,-2.636607409E0
8.883181895E1,-4.921618849E-2,-1.450140953E0,-2.708689451E0
8.893188156E1,1.074775934E0,-2.422638416E0,-2.456808388E-1
8.903196344E1,5.164449811E-1,-5.087975860E-1,-7.972921729E-1
8.913201826E1,-7.230005264E-1,4.386543930E-1,3.364737630E-1
8.923208887E1,-1.090130568E0,5.122158051E0,2.717220187E-1
8.933216372E1,-7.370504737E-1,-1.626681089E0,1.717029214E0
8.943221653E1,1.294076562E0,-1.024978757E0,-7.708203048E-2
8.953228398E1,-2.058351994E0,-1.958991647E0,-3.575507402E0
8.963235313E1,-1.622946747E-2,-4.281633794E-1,-6.616800427E-1
8.973243018E1,1.220772743E0,-1.787949443E0,5.130137801E-1
8.983249649E1,-2.328354597E0,4.153326035E0,-1.601596922E-1
8.993255581E1,1.378375888E0,2.717792749E0,9.345108271E-1
9.003262769E1,-1.228796959E0,4.649215937E-1,9.357325435E-1
9.013268917E1,1.181608886E-1,3.903960288E-1,1.149535418E0
9.023275969E1,-1.836607933E0,-1.109889030E0,-2.510769367E0
9.033282460E1,3.423484266E-1,-7.580306530E-1,-2.352961302E-1
9.043289725E1,-1.677240431E-1,-1.141786575E-1,-1.171945035E-2
9.053296553E1,6.202921271E-1,1.672602177E0,9.247369766E-1
9.063303222E1,1.957476139E0,-7.134374380E-1,1.426868200E0
9.073309026E1,-7.083398104E-1,2.975445390E-1,7.500295639E-1
9.083315938E1,-3.644226789E-1,-4.593175054E-1,2.998218238E-1
9.093322769E1,2.287274897E-1,-1.776342988E0,-1.586529970E0
9.103330444E1,-6.148774028E-1,-4.403063297E0,-1.231006503E0
9.113336952E1,-1.848282814E-1,1.493007779E0,-1.358066440E0
9.123342790E1,7.424651384E-1,1.539911777E-1,6.341698021E-2
9.133349718E1,5.647033453E-1,1.637171984E0,2.115313292E0
9.143356706E1,-6.021176651E-2,4.711656570E0,8.050073981E-1
9.153363050E1,-4.633828104E-1,-3.628008068E-1,1.215508819E0
9.163369062E1,1.487041414E-1,-1.312828809E-1,-2.707263231E-1
9.173385430E1,-1.865929484E0,-2.092771292E0,-1.902958274E0
9.183392155E1,2.788184583E-1,-1.332854867E0,-5.633307695E-1
9.193398950E1,1.502992392E0,-4.092133045E0,-3.586909175E-1
9.203405338E1,-1.323481083E0,3.911423445E0,-1.623182058E0
9.213412120E1,2.501757145E0,1.251716018E0,1.767120123E0
9.223418794E1,-8.024130464E-1,3.502754450E0,1.213676214E0
9.233426199E1,8.780772686E-1,-9.431228042E-1,9.229043722E-1
9.243432217E1,-8.836581707E-1,-3.394524813E0,-1.964655638E0
9.253439095E1,-2.611864209E-1,-5.564450622E-1,-9.481758475E-1
9.263445833E1,2.012385577E-1,-1.272989988E0,4.861357212E-1
9.273452354E1,4.485705495E-2,1.654276252E0,-5.333983898E-1
9.283460289E1,2.132794380E0,9.664419293E-1,1.310803890E0
9.293465707E1,-1.325313687E0,5.000596046E0,-3.257041872E-1
9.303472633E1,-1.087687135E0,-8.111758828E-1,1.128765941E0
9.313479297E1,6.209029555E-1,-9.058600068E-1,-1.441755056E0
9.323485942E1,-2.171972990E0,-2.383543015E0,-2.758169651E0
9.333494373E1,1.229324698E0,-1.984037280E0,-1.790965199E-1
9.343499711E1,-1.804842949E0,1.505835891E0,-7.423142791E-1
9.353506059E1,3.454027772E-1,1.914504886E0,1.487343907E0
9.363512854E1,3.563983440E-1,4.054365635E0,-3.061564863E-1
9.373520489E1,-9.496315718E-1,-1.514281750E0,1.432976842E0
9.383527071E1,7.644562721E-1,3.012097180E-1,1.158698320E0
9.393532789E1,-1.968554854E0,-3.020675421E0,-2.376989841E0
9.403539627E1,4.668965191E-2,-5.197931528E-1,-1.163200498E0
9.413546799E1,9.923090935E-1,-1.817270994E0,-6.720647812E-1
9.423553554E1,-5.715059638E-1,2.653041124E0,8.296465874E-2
9.433559748E1,2.551237106E0,2.191226721E0,1.516054511E0
9.443567016E1,-9.801747799E-1,1.621289492E0,1.429922462E0
9.453573204E1,-3.418206573E-1,2.792185545E-1,1.210011005E0
9.463579719E1,-9.911704063E-1,-4.866710663E0,-1.827210903E0
9.473586390E1,-2.770689428E-1,6.772662979E-3,-1.626236320E0
9.483593931E1,1.195116282E0,-1.626070142E0,-4.389066715E-3
9.493600063E1,1.561635494E0,6.121401191E-1,-2.792783976E-1
9.503607160E1,7.478944957E-2,1.586470246E0,4.904117882E-1
9.513613439E1,1.587291718E0,4.890640259E0,1.996194601E0
9.523620387E1,-2.087673664E0,1.124523431E-1,2.216310799E-1
9.533627475E1,-1.456038833E0,-2.548476458E0,-2.029202729E-1
9.543634316E1,-3.518319845E0,-4.051815987E0,-2.367215872E0
9.553640334E1,7.833931446E-1,-2.611395836E0,-7.771335840E-1
9.563647045E1,5.543186665E-1,-4.855847061E-1,-7.600293756E-1
9.573653443E1,-1.416332603E0,4.035429001E0,-2.102506608E-1
9.583660488E1,1.043621659E0,4.705548286E0,3.592804074E-2
9.593667573E1,7.295685261E-2,-1.173418999E0,2.388980865E0
9.603674322E1,3.618961275E-1,1.195516467E0,4.753447697E-2
9.613680563E1,-1.295992136E0,-3.629097223E0,-1.808884978E0
9.623687284E1,-5.617321134E-1,-4.177787006E-1,-7.594185472E-1
9.633693999E1,3.752667084E-2,-1.085454345E0,-2.536220849E-1
9.643700714E1,-6.130447984E-1,2.453288078E0,-4.778096378E-1
9.653707348E1,4.589083672E0,1.092280149E0,2.371265888E0
9.663714137E1,-1.870205402E0,3.760539532E0,7.005494237E-1
9.673721632E1,-8.464637399E-2,-3.609682024E-1,2.015131474E0
9.683728827E1,-2.118216753E0,-2.282750130E0,-1.816215277E0
9.693734368E1,-3.833594620E-1,-2.873456955E0,-1.131435394E0
9.703742110E1,-4.677273333E-2,-1.526499152E0,-7.044405937E-1
9.713748387E1,5.347710252E-1,-3.347010314E-1,-1.129602909E0
9.723755226E1,-1.759027958E0,4.708602428E0,-1.589379758E-1
9.733761421E1,7.730084062E-1,3.240693331E0,1.783002734E0
9.743768155E1,-2.336974889E-1,-1.807629764E-1,2.003525019E0
9.753774781E1,6.105182767E-1,-4.519871175E-1,-3.464736044E-1
9.763781952E1,-5.330215096E-1,-3.117803097E0,-1.863251925E0
9.773788584E1,2.286590822E-2,-1.436701894E0,-7.991247773E-1
9.783795049E1,1.193826124E-1,-1.123938918E0,-3.128760159E-1
9.793802064E1,-9.380935878E-2,2.494826794E0,-5.828784704E-1
9.803808835E1,3.501743317E0,4.166632295E-1,2.459841251E0
9.813815376E1,-1.515292764E0,3.481374264E0,3.792343140E-1
9.823822141E1,3.478462100E-1,-8.869231939E-1,1.610127807E0
9.833828369E1,-9.496315718E-1,-2.922326088E0,-1.600579977E0
9.843834744E1,2.378904670E-1,-3.093368292E0,-9.683344364E-1
9.853842196E1,-4.004637003E-1,-1.024978757E0,-1.067294598E0
9.863847927E1,5.585947037E-1,4.068894088E-1,-5.663850904E-1
9.873855358E1,1.377154231E0,1.161307931E0,9.595562816E-1
9.883862033E1,-1.459093094E0,4.609642029E0,-2.859979570E-1
9.893877562E1,8.621947765E-1,-4.904716611E-1,2.572240591E0
9.903884074E1,-8.628886938E-1,-6.486857533E-1,-6.506845355E-1
9.913891148E1,-2.177470684E0,-3.125133514E0,-2.687309265E0
9.923897366E1,7.387999892E-1,-8.997513652E-1,-7.282643914E-1
9.933903914E1,5.011733770E-1,-1.257718325E0,-1.717661470E-1
9.943910892E1,-5.721167922E-1,2.208331108E0,2.173550129E-1
9.953917537E1,1.369212866E0,3.799634933E0,-4.148904979E-1
9.963924242E1,-9.203100801E-1,-9.402010590E-2,1.035303593E0
9.973930610E1,5.335492492E-1,1.001872182E0,8.758677244E-1
9.983937404E1,-1.068750262E0,-3.720726967E0,-1.480239511E0
9.993944616E1,4.700192511E-1,-1.309641957E0,-7.441468239E-1
1.000395089E2,9.555886686E-2,-1.371950150E0,-1.049579501E0
1.001395770E2,-2.697385550E-1,1.948102474E0,-3.764060140E-1
1.002396447E2,1.501159787E0,1.774616718E0,2.814754248E0
1.003397120E2,-8.415084481E-1,2.643267155E0,1.699924946E0
1.004397921E2,1.636160970E0,1.058071733E0,1.778115749E0
1.005398457E2,-2.117605925E0,-3.071988344E0,-2.338505030E0
1.006399084E2,-5.165280700E-1,-1.560707569E0,-7.105492949E-1
1.007399801E2,-5.330215096E-1,-1.708536983E0,-6.531279087E-1
1.008400532E2,-4.365047514E-1,1.464297175E0,-1.160756946E0
1.009401180E2,2.532911062E0,8.913055658E-1,1.583860636E0
1.010401822E2,-1.747421622E0,5.444695473E0,-1.254219413E0
1.011402472E2,-7.066489197E-3,-1.630957007E0,2.395700455E0
1.012403222E2,-1.410834789E0,-4.202221334E-1,-1.331188321E0
1.013403813E2,-1.992989421E0,-3.652920961E0,-2.075222254E0
1.014404484E2,3.576200604E-1,-1.166699409E0,-9.744430780E-1
1.015405216E2,6.844329834E-1,-1.555820704E0,-4.765878916E-1
1.016405830E2,-5.030890703E-1,7.925418854E0,-8.589895368E-1
1.017406552E2,2.825515509E0,4.147828102E0,3.444556236E0
1.018407250E2,-1.541559935E0,9.901331365E-2,1.497117639E0
1.019407835E2,-9.251969457E-1,-6.199750900E-1,-2.939391732E-1
1.020408512E2,-2.363173723E0,-3.075653315E0,-1.956103563E0
1.021409181E2,1.194505453E0,-1.639509201E0,1.409968585E-1
1.022409976E2,-5.324105620E-1,3.629071116E-1,-2.032461643E0
1.023410523E2,6.073955074E-2,2.472835779E0,-4.704792500E-1
1.024411360E2,4.927503109E0,1.203457594E0,2.812310457E0
1.025411910E2,-1.608144283E0,3.878436565E0,-9.052106738E-2
1.026412504E2,1.097988725E0,-1.285207272E0,1.978073269E-1
1.027413219E2,-1.322870255E0,-1.980371952E0,-9.854386449E-1
1.028413896E2,4.046566784E-1,-9.816073179E-1,-6.751191020E-1
1.029414570E2,7.601118833E-2,-1.654780746E0,-6.537388563E-1
1.030415226E2,8.157689571E-1,-3.536378145E-1,-4.998007715E-1
1.031415918E2,2.242750168E0,3.763461411E-1,8.899176717E-1
1.032416638E2,-6.632041931E-2,4.830164433E0,6.223586798E-1
1.033417239E2,-1.185425520E0,1.330517650E0,1.346844792E0
1.034417896E2,-2.333241463E0,-8.551582098E-1,-9.689453244E-1
1.035418708E2,-2.764580548E-1,-5.469023228E0,-6.317476630E-1
1.036419203E2,-1.988781691E-1,-1.135545254E0,-1.060575128E0
1.037420033E2,9.067194909E-2,-5.248126760E-2,-1.182137251E0
1.038420729E2,-2.941731513E-1,4.161267281E0,-2.762240767E-1
1.039421282E2,2.116301060E0,3.157004595E0,3.816777766E-1
1.040421986E2,-7.480460405E-1,1.296920061E0,1.057905674E0
1.041422602E2,4.865126312E-1,2.205754966E-1,1.290034413E0
1.042423333E2,-2.389441013E0,-4.273560047E0,-1.929225445E0
1.043423961E2,1.313013315E0,-1.237559795E0,-1.009057760E-1
1.044424623E2,-4.542198479E-1,-1.204573154E0,-1.034307837E0
1.045425293E2,-3.381554484E-1,2.626162767E0,-5.462265611E-1
1.046425912E2,2.956851482E0,-1.445864916E0,1.528882742E0
1.047426660E2,-1.350970030E0,3.682348967E0,-1.766530573E-1
1.048427288E2,-7.401047945E-1,-1.080700010E-1,1.753070235E0
1.049427973E2,-2.891572237E0,-3.105585575E0,-1.364786029E0
1.050428755E2,4.437520802E-1,-1.942498326E0,-1.044692636E0
1.051429335E2,3.282985091E-1,-1.373171926E0,-1.251165032E0
1.052430024E2,1.639215350E0,2.828837633E-1,-4.038949311E-1
1.053430731E2,1.535910666E-1,2.754444599E0,5.117920637E-1
1.054431381E2,-5.128629208E-1,5.742186546E0,-1.389831424E0
1.055432155E2,-1.360133052E0,-5.142953992E-1,1.343179703E0
1.056432684E2,7.864474654E-1,-1.533829451E0,1.110440016E0
1.057433317E2,-2.914785147E0,-3.408575058E0,-2.601788044E0
1.058434069E2,8.169907331E-1,-2.033517122E0,-1.711552739E-1
1.059434757E2,-5.593570694E-2,-1.450751781E0,-8.541026115E-1
1.060435359E2,-8.775494099E-1,3.565673590E0,-5.804349780E-1
1.061436053E2,2.417457819E0,3.015894890E0,1.184354782E0
1.062437722E2,-1.096850157E0,2.070275307E0,1.633951545E0
1.063438239E2,3.710591197E-1,-6.260837317E-1,1.301029921E0
1.064438991E2,-5.629538298E-1,-4.130006790E0,-2.026353121E0
1.065439633E2,7.173512876E-2,-1.485571146E0,-1.461913586E0
1.066440206E2,1.068667293E0,-1.801388383E0,-1.687118262E-1
1.067441094E2,3.527331650E-1,7.404218316E-1,-6.421324015E-1
1.068441597E2,1.675725542E-2,2.682362556E0,3.896190226E-1
1.069442287E2,-2.575212419E-1,4.178371429E0,6.602323055E-1
1.070442958E2,6.728265285E-1,1.582672447E-1,2.043842077E0
1.071443684E2,-2.086520195E-1,-9.345706701E-1,-1.585308313E0
1.072444303E2,-3.340558052E0,-5.323026180E0,-1.943275332E0
1.073444956E2,1.075386763E0,-1.297424674E0,4.800270796E-1
1.074445631E2,-5.177498460E-1,9.206270576E-1,-1.337296963E0
1.075446302E2,-3.601466119E-1,3.205263138E0,-9.304607511E-1
1.076446926E2,1.697858453E0,1.979867458E0,5.038508177E-1
1.077447662E2,-8.127977252E-1,-1.097060800E0,2.065833330E0
1.078448314E2,1.107151747E0,-3.171184659E-2,1.299197435E0
1.079449001E2,-8.671647310E-1,-3.420792341E0,-1.371505499E0
1.080449664E2,-6.265522540E-2,-9.890703112E-2,-8.137854934E-1
1.081450355E2,4.852224886E-2,-3.475291729E-1,-7.191013694E-1
1.082451042E2,-5.763928890E-1,1.875409365E0,-2.872196734E-1
1.083451683E2,4.964765549E0,3.885634542E-1,2.719459057E0
1.084452418E2,-5.128629208E-1,3.015283823E0,6.235803962E-1
1.085453017E2,-8.586810529E-2,-5.918753147E-1,1.712142229E0
1.086453630E2,-1.873870730E0,-4.062200546E0,-1.314084053E0
1.087454321E2,-6.136556864E-1,-2.200894356E0,-1.596303940E0
1.088455120E2,4.138196707E-1,-3.163750470E-1,-5.407287478E-1
1.089455693E2,1.316678524E0,5.565513968E-1,-2.699108049E-2
1.090456438E2,8.890728354E-1,5.797643065E-1,1.235056520E0
1.091457052E2,-1.296603084E0,5.654832363E0,-4.191665649E-1
1.092457771E2,-9.282512665E-1,-5.350648165E-1,1.873410702E0
1.093458510E2,-1.466423631E0,-1.878968358E0,-9.622257948E-1
1.094459048E2,-4.394300938E0,-2.942484617E0,-2.965252876E0
1.095459755E2,1.567744136E0,-2.018245697E0,-1.026366591E0
1.096460399E2,2.666011453E-1,-1.245633587E-1,-1.424650788E0
1.097461080E2,-6.796291471E-1,3.350648880E0,7.121558785E-1
1.098461780E2,2.590332508E0,2.918767452E0,1.479402542E0
1.099462418E2,-7.376613021E-1,2.048895359E0,1.600964785E0
1.100463107E2,4.694084227E-1,3.012097180E-1,6.608431935E-1
1.101463756E2,-1.958170056E0,-4.308379173E0,-1.982370734E0
1.102464548E2,2.775967121E-1,-5.992056727E-1,-8.186724186E-1
1.103465097E2,5.952466726E-1,-1.651726484E0,2.004554309E-2
1.104465790E2,-3.760290742E-1,2.223602533E0,-2.090289295E-1
1.105466658E2,3.705161572E0,2.230933189E0,1.092724800E0
1.106467130E2,-9.630706310E-1,1.812490344E0,1.051797032E0
1.107467785E2,6.379388273E-2,4.777497649E-1,1.331573248E0
1.108468559E2,-2.129212379E0,-3.902764797E0,-1.705037951E0
1.109469217E2,-1.183592916E0,-2.065893173E0,-1.508950233E0
1.110469909E2,1.065544412E-1,-2.497907430E-1,-9.567279816E-1
1.111470475E2,7.882800698E-1,1.109384418E0,-4.081709981E-1
1.112471247E2,2.255578279E0,-3.713529408E-1,1.467185259E0
1.113471842E2,-1.523234010E0,5.208290100E0,-1.125122160E-1
1.114472538E2,7.247500420E-1,6.908091903E-2,2.801925898E0
1.115473151E2,-2.175027370E0,-2.549698591E0,-1.336075306E0
1.116473930E2,-1.605700850E0,-3.729279280E0,-1.926782012E0
1.117474587E2,6.270116568E-1,-2.491666317E0,-1.522184610E-1
1.118475192E2,-1.713892370E-1,1.084339023E0,-1.561484575E0
1.119475903E2,-7.003985643E-1,3.271847486E0,-1.110858470E-2
1.120476575E2,2.372864485E0,3.782530785E0,8.954154849E-1
1.121477171E2,-8.433409929E-1,3.519115150E-1,1.107996583E0
1.122477890E2,-3.302142024E-1,1.111827850E0,6.596214771E-1
1.123478588E2,-2.226339817E0,-4.687726498E0,-1.741078973E0
1.124479214E2,-1.310721338E-1,-6.211968660E-1,-1.218789220E0
1.125479878E2,-7.066489197E-3,-6.169207692E-1,-9.872712493E-1
1.126480709E2,2.427773923E-1,2.613334656E0,1.202274412E-1
1.127481324E2,4.245166302E0,1.003704786E0,2.679752827E0
1.128481881E2,-1.569049001E0,4.318259716E0,-3.248886764E-2
1.129482586E2,2.427773923E-1,-1.075680494E0,1.637005806E0
1.130483254E2,-2.568424463E0,-4.706052780E0,-1.249943376E0
1.131483885E2,-2.721820176E-1,-2.654767036E0,-1.010484099E0
1.132484560E2,2.256731689E-1,-1.526499152E0,-1.187024117E0
1.133485263E2,6.166269779E-1,6.414616704E-1,-1.153426647E0
1.134485896E2,1.829126030E-1,5.425014496E-1,4.323795736E-1
1.135503772E2,-9.380251169E-1,7.394577026E0,-4.527641535E-1
1.136504320E2,8.402036428E-1,-2.318180323E0,2.257645130E0
1.137505039E2,-4.135293961E0,-1.896072626E0,-1.867528081E0
1.138505768E2,-2.575144053E0,-4.363968372E0,-1.056299090E0
1.139506484E2,7.113110423E-1,-9.419010878E-1,-8.956415057E-1
1.140507067E2,1.002082944E0,1.898996718E-2,-8.076768517E-1
1.141507777E2,-4.212331176E-1,3.233362675E0,3.987819850E-1
1.142508404E2,2.051549435E0,5.217453003E0,1.574902236E-1
1.143509151E2,-8.372323513E-1,-2.180257440E-1,1.448248506E0
1.144509882E2,-6.429772377E-1,3.426159918E-2,3.890081346E-1
1.145510437E2,-2.445029736E0,-5.337076664E0,-1.805219889E0
1.146511072E2,4.700192511E-1,-3.511943519E-1,-1.126548409E0
1.147511748E2,4.095436037E-1,-1.263827085E0,-3.971754014E-1
1.148512455E2,1.731387675E-1,3.129515886E0,2.920852043E-2
1.149513129E2,3.057033777E0,1.840590119E0,1.789722204E0
1.150513802E2,-1.107234716E0,3.677461863E0,7.011602521E-1
1.151514526E2,-3.467075825E-1,7.043808103E-1,1.332794905E0
1.152515168E2,-1.038817883E0,-4.283944607E0,-2.047733307E0
1.153515795E2,-3.314359486E-1,-2.361552000E0,-9.164108634E-1
1.154516467E2,3.099725544E-1,-2.440964460E0,-2.371287197E-1
1.155517146E2,3.472353518E-1,1.326109022E-1,-4.704792500E-1
1.156517802E2,1.272085309E0,5.266189575E-1,7.029928565E-1
1.157518495E2,-9.655140638E-1,5.021976471E0,-4.851400256E-1
1.158519295E2,1.323398113E0,-1.104391217E0,2.447623968E0
1.159519813E2,-2.470075130E0,-5.136845112E-1,-1.700761795E0
1.160520494E2,-2.814603329E0,-3.578395605E0,-2.802151918E0
1.161521193E2,1.358828306E0,-1.244890213E0,-8.003464937E-1
1.162521849E2,1.716184378E0,-6.040925980E-1,2.839393318E-1
1.163522564E2,-1.011328936E0,4.058031082E0,8.184463978E-1
1.164523167E2,1.117536426E0,5.249829292E0,-7.899618149E-1
1.165523858E2,1.651975065E-1,-4.758108854E-1,2.341944218E0
1.166524524E2,-6.264837980E-1,4.979083240E-1,7.982878685E-1
1.167525181E2,-2.092560530E0,-4.500190735E0,-1.191300273E0
1.168525864E2,-1.866608709E-1,-8.508821130E-1,-1.076457500E0
1.169526527E2,3.838872612E-1,-1.058576345E0,-1.199241400E0
1.170527205E2,6.868080050E-2,2.186950684E0,-9.817734361E-1
1.171527867E2,3.248845100E0,2.188172340E0,2.001081467E0
1.172528542E2,-1.060809135E0,3.097139835E0,1.673046827E0
1.173529225E2,6.422832608E-1,-9.370141625E-1,2.150132656E0
1.174529949E2,-2.734579802E0,-3.843511105E0,-2.015968323E0
1.175530592E2,-6.771856546E-1,1.654650643E-2,-1.970764279E0
1.176531192E2,2.244514376E-1,-1.150817037E0,-7.166579366E-1
1.177531908E2,-3.516628966E-2,8.283864260E-1,2.686676979E-1
1.178532752E2,1.802316427E0,3.879525661E-1,2.103096008E0
1.179533265E2,-9.722335935E-1,3.717779160E0,9.448955059E-1
1.180533944E2,-1.518347025E0,3.769569993E-1,9.870452285E-1
1.181534612E2,4.193174541E-1,-2.088495016E0,6.219524518E-2
1.182535269E2,-2.327743769E0,-6.437988281E-1,-1.888297439E0
1.183536026E2,-6.112121940E-1,4.618672729E-1,-8.406635523E-1
1.184536624E2,7.937778234E-1,-3.371444643E-1,-3.134868741E-1
1.185537264E2,6.459484696E-1,8.002866507E-1,1.282703996E0
1.186537910E2,-7.492677569E-1,3.284675598E0,1.032249212E0
1.187538581E2,-1.319205046E0,9.395639300E-1,1.036525249E0
1.188539277E2,1.320954561E0,-5.735493302E-1,5.795980692E-1
1.189539997E2,-4.804870486E-1,-9.809964895E-1,-2.744119644E0
1.190540662E2,2.260465384E0,-3.510589361E0,3.456367254E-1
1.191541309E2,-1.211692691E0,-1.566205263E0,-8.950305581E-1
1.192541977E2,-4.694914818E-1,2.240706682E0,-1.207793593E0
1.193542740E2,3.798013210E0,1.165958494E-2,1.018199325E0
1.194543456E2,-1.214136243E0,4.408056736E0,2.126727253E-2
1.195544029E2,2.144400835E0,-1.513670921E0,2.566742659E0
1.196544618E2,-2.948382616E0,-2.210668325E0,-3.446410298E-1
1.197545304E2,-1.567827106E0,-1.645617843E0,-2.694028854E0
1.198545979E2,1.325230598E0,-1.895461679E0,-6.763408184E-1
1.199546707E2,2.556055486E-1,-1.636587381E-1,-9.988777041E-1
1.200547355E2,-7.602633834E-1,3.842395544E0,2.527852058E-1
1.201548007E2,2.093698978E0,4.991433144E0,-5.957065821E-1
1.202548673E2,-8.213498592E-1,3.403050900E-1,2.243594885E0
1.203549366E2,-1.275222778E0,1.155810237E0,1.173969984E0
1.204550129E2,-3.072388172E0,-4.313266277E0,-2.571244955E0
1.205550767E2,8.970140815E-1,-1.105612874E0,-3.031021655E-1
1.206551334E2,1.633649170E-1,-1.491679788E0,-1.252386689E0
1.207551894E2,-1.970455796E-1,2.230322361E0,-8.479939699E-1
1.208552525E2,3.466924191E0,4.007807374E-1,2.508710384E0
1.209553213E2,-1.877535939E0,3.953572989E0,6.730604768E-1
1.210553863E2,7.235283256E-1,-1.905846477E0,3.004733086E0
1.211554542E2,-2.997862816E0,-3.099477053E0,-2.618892431E0
1.212555342E2,-1.372961164E0,2.610891104E0,-3.726391077E0
1.213555946E2,3.722265959E0,-4.468426228E0,7.200971246E-1
1.214556610E2,4.333673418E-1,5.321167707E-1,-5.834892988E-1
1.215557223E2,-1.954504848E0,4.129502296E0,3.865647018E-1
1.216557890E2,-3.961876631E-1,6.669479847E0,9.601671696E-1
1.217558563E2,-5.195824504E-1,-1.221066475E0,1.844700098E0
1.218559233E2,-1.607533455E0,-1.436701894E0,-3.116542995E-1
1.219559977E2,-2.393106222E0,-3.060992718E0,-3.104530334E0
1.220560602E2,5.799750090E-1,-5.662189126E-1,-1.130824566E0
1.221561266E2,1.065002084E0,-8.789819479E-1,-6.268607974E-1
1.222561925E2,-5.348540545E-1,3.026890278E0,-2.554546893E-1
1.223562602E2,1.665482521E0,4.913242340E0,9.552801847E-1
1.224563264E2,-8.995406032E-1,-6.340249777E-1,2.463506699E0
1.225563943E2,1.169391572E-1,-1.471653730E-1,1.349288344E0
1.226564594E2,-1.631968021E0,-4.637024879E0,-2.490610600E0
1.227565307E2,2.482751757E-1,-8.668971807E-2,-1.495511055E0
1.228565985E2,1.493150145E-1,-2.602232933E0,-6.946668029E-1
1.229566625E2,-8.005804420E-1,1.938328624E0,-1.127770305E0
1.230567303E2,2.898819685E0,1.720860600E0,6.730604768E-1
1.231568034E2,-1.373571992E0,4.226629734E0,1.100055337E0
1.232568667E2,-8.127977252E-1,-4.238873422E-1,2.001692295E0
1.233569299E2,-2.125547171E0,-2.087884188E0,-2.167462826E0
1.234570032E2,2.513295114E-1,-1.226564169E0,-1.915175557E0
1.235570660E2,1.129753828E0,-1.558874965E0,-7.673597336E-1
1.236571421E2,7.730084062E-1,-7.274873853E-1,-1.876486391E-1
1.237571974E2,-4.420025349E-1,3.928527594E0,1.159513891E-1
1.238572749E2,-8.732733727E-1,6.643823624E0,-3.562474251E-1
1.239573386E2,-1.066306829E0,-1.664554715E0,2.305903435E0
1.240574051E2,4.034349620E-1,-5.064867064E-2,6.400737762E-1
1.241574675E2,-2.164031744E0,-3.517920017E0,-3.247472763E0
1.242575376E2,4.681866765E-1,-7.140483260E-1,-7.985138297E-1
1.243576022E2,5.598164797E-1,-1.506951451E0,-6.451867223E-1
1.244576698E2,-7.303993404E-2,1.739797354E0,8.235380054E-2
1.245577425E2,3.159048080E0,2.293241262E0,1.847143412E0
1.246577958E2,-1.638076663E0,3.425174475E0,6.938298941E-1
1.247578792E2,3.796111941E-1,-6.248620152E-1,2.754889250E0
1.248579483E2,-2.448083878E0,-5.458027840E0,-2.077665806E0
1.249580115E2,-1.598370433E0,1.641448021E0,-3.092923880E0
1.250580738E2,1.565911531E0,-2.628499985E0,-4.979681671E-1
1.251581412E2,5.964683890E-1,3.256443143E-1,-2.811110318E-1
1.252582065E2,1.364868432E-1,2.704353571E0,1.129987717E0
1.253582890E2,-6.032710075E-1,5.230892181E0,2.888262570E-1
1.254583401E2,-6.325925589E-1,3.354181647E-1,2.142802238E0
1.255584094E2,-9.496315718E-1,-9.302946329E-1,-5.236245394E-1
1.256584673E2,-2.047967196E0,-4.958950520E0,-2.348278999E0
1.257585484E2,6.166269779E-1,-9.449554086E-1,-9.744430780E-1
1.258586115E2,2.012385577E-1,-8.325561881E-1,-1.240780234E0
1.259586792E2,-8.323454857E-1,3.110578775E0,-3.000478446E-1
1.260587426E2,3.779687166E0,2.056836367E0,2.608281612E0
1.261588205E2,-1.415721774E0,2.392201424E0,1.498950362E0
1.262588818E2,6.184595227E-1,-4.331828654E-2,2.042009592E0
1.263589520E2,-2.030863047E0,-4.352361679E0,-1.672051191E0
1.264590212E2,-3.179968894E-1,7.153763175E-1,-2.012913942E0
1.265590784E2,8.792989850E-1,-2.215555191E0,-6.738973856E-1
1.266591420E2,3.380723894E-1,1.058682561E0,-1.384333611E0
1.267592141E2,2.072929621E0,-7.665827870E-1,1.179467797E0
1.268592840E2,-2.211679220E0,5.830151081E0,6.767256856E-1
1.269593503E2,5.262188911E-1,-2.081164837E0,2.902107716E0
1.270594179E2,-2.106610298E0,-1.958380818E0,-1.248110771E0
1.271594844E2,-2.736412287E0,-1.995032668E0,-3.626209021E0
1.272595532E2,1.771773100E0,-1.572924852E0,-6.891689897E-1
1.273596155E2,8.237102628E-1,-1.046969891E0,-3.092108071E-1
1.274596917E2,-1.328978896E0,3.871106148E0,-1.790965199E-1
1.275597490E2,1.411362648E0,4.829553604E0,1.258880258E0
1.276598206E2,-1.606311679E0,3.122052848E-1,1.800717831E0
1.277598887E2,1.419846416E-1,4.423195720E-1,8.752568960E-1
1.278599513E2,-7.315526605E-1,-5.469023228E0,-2.141195774E0
1.279600177E2,-1.290494442E0,8.167799711E-1,-1.517502308E0
1.280605573E2,1.564078927E0,-1.538716435E0,-1.986442059E-1
1.281606222E2,1.365547776E0,7.630238533E-1,-4.649814665E-1
1.282606903E2,1.030182719E0,1.490564346E0,8.984698057E-1
1.283607558E2,-2.409599543E0,6.183230877E0,6.742822528E-1
1.284608241E2,5.304949284E-1,-2.771442413E0,3.855057716E0
1.285608929E2,-3.724181414E0,-2.464177132E0,-2.259092808E0
1.286609498E2,-8.970971704E-1,-8.307235837E-1,-3.458832026E0
1.287610235E2,1.714962602E0,-2.100101471E0,-9.903255701E-1
1.288610912E2,2.385013402E-1,1.906563640E0,-1.678159833E0
1.289611636E2,-1.054089427E0,3.436170101E0,1.738409400E0
1.290612278E2,-2.453039438E-1,5.523496628E0,1.115937710E0
1.291612974E2,-3.955767751E-1,-5.985947847E-1,2.172734737E0
1.292613611E2,1.529802084E-1,-4.703130722E-1,5.160681009E-1
1.293614308E2,-2.087062836E0,-3.649255753E0,-2.940207481E0
1.294614945E2,8.927380443E-1,-9.443445206E-1,-1.174806833E0
1.295615625E2,2.672120035E-1,-5.973730683E-1,-1.099059582E0
1.296616214E2,-8.592234850E-1,3.456328630E0,1.067884043E-1
1.297616949E2,2.364312410E0,2.252923965E0,2.530090809E0
1.298617625E2,-1.081578493E0,3.354314327E0,8.917502165E-1
1.299618311E2,2.629359365E-1,-1.233283758E0,1.826374054E0
1.300618984E2,-2.492677212E0,-4.808067322E0,-1.501008868E0
1.301619790E2,1.002082944E0,-2.842913866E0,-9.316824675E-1
1.302620343E2,-8.831156790E-2,-1.842927217E0,-1.358677387E0
1.303621043E2,5.934140682E-1,-4.392915219E-2,-9.072479010E-1
1.304621720E2,-1.064474225E0,8.687035441E-1,1.076842427E0
1.305622374E2,-5.208041668E-1,6.632828236E0,2.527852058E-1
1.306622929E2,-3.363228440E-1,-7.989585996E-1,1.599743009E0
1.307623773E2,-1.663122177E0,-2.065893173E0,-8.498265147E-1
1.308624366E2,-2.230615854E0,-3.088481426E0,-2.008027077E0
1.309625045E2,1.058893323E0,-7.171026468E-1,-8.925871849E-1
1.310625694E2,6.745906919E-2,3.610745072E-1,-1.236504316E0
1.311626434E2,-1.537283897E0,4.001831532E0,6.144174337E-1
1.312627033E2,2.389357805E0,2.213828802E0,1.904564857E0
1.313627701E2,-1.816449285E0,2.049506187E0,1.352953434E0
1.314628375E2,8.591404557E-1,-1.070793629E0,1.830650091E0
1.315629048E2,-1.160990953E0,-3.984620810E0,-2.994574547E0
1.316629711E2,1.102264762E0,-2.238768101E0,-1.913138330E-1
1.317630393E2,-1.173819065E0,-4.648153186E-1,-2.338505030E0
1.318631125E2,1.075997591E0,1.301807046E0,-1.650466323E-1
1.319631795E2,2.404629469E0,-3.659877181E-2,1.995583773E0
1.320632410E2,-1.584320545E0,5.453857899E0,5.673807859E-1
1.321633083E2,1.835234612E-1,-1.874081373E0,2.234432220E0
1.322633832E2,-1.969776511E0,-2.831918240E0,-6.262498498E-1
1.323634498E2,-2.071790934E0,-2.957756281E0,-2.266422987E0
1.324635134E2,-8.421192765E-1,5.339493155E-1,-2.504049540E0
1.325635796E2,1.364936948E0,-1.401882529E0,1.446620524E-1
1.326636566E2,-1.371128559E0,4.279774666E0,3.321976960E-1
1.327637144E2,2.647753954E0,3.627981901E0,2.016353130E0
1.328637831E2,-8.299019933E-1,1.700091124E0,1.356007814E0
1.329638549E2,4.883452058E-1,-1.260772705E0,1.153200507E0
1.330639195E2,-2.017423868E0,-4.676731110E0,-1.880356193E0
1.331639833E2,-5.593570694E-2,1.601130962E0,-1.454583168E0
1.332640708E2,-9.442021698E-2,-1.114775896E0,-1.819269657E0
1.333641197E2,5.475991964E-1,9.218488336E-1,1.715401262E-1
1.334641869E2,2.507254839E0,1.764842868E0,2.160517216E0
1.335642526E2,-2.190367281E-1,4.893084049E0,5.398918390E-1
1.336643149E2,-3.937442005E-1,-6.218076944E-1,1.709698796E0
1.337643861E2,-2.295978546E0,-1.513670921E0,-9.096913338E-1
1.338644488E2,-2.246498585E0,-3.611993074E0,-2.193730116E0
1.339645160E2,9.080096483E-1,-1.403104424E0,-5.914305449E-1
1.340645882E2,1.152355671E0,-9.076926112E-1,-4.399359822E-1
1.341646568E2,-1.577601075E0,3.755041838E0,2.859765664E-2
1.342647162E2,2.449833393E0,4.469142914E0,9.693301320E-1
1.343647819E2,-9.068709612E-1,5.858729482E-1,1.454967976E0
1.344648518E2,-4.127494246E-2,-4.910825193E-1,1.000484228E0
1.345649247E2,-1.635633230E0,-3.373144865E0,-2.149137020E0
1.346649834E2,6.349529028E-1,-1.216415968E-2,-1.627457976E0
1.347650553E2,9.257247448E-1,-1.514414400E-1,-8.455505371E-1
1.348651193E2,2.525512278E-1,2.427020788E0,3.719039261E-1
1.349652016E2,1.384484529E0,1.804549098E0,1.129987717E0
1.350652531E2,-1.289272547E0,4.119728565E0,1.505669832E0
1.351653240E2,-2.625234842E0,-1.394552231E0,8.563200831E-1
1.352655793E2,-1.803621173E0,-2.929045677E0,-1.597525597E0
1.353656477E2,-1.664343834E0,-3.332216740E0,-2.190064907E0
1.354657080E2,1.162129641E0,-1.011539698E0,-7.728575468E-1
1.355657778E2,7.161979079E-1,-2.229126692E-1,-1.022090554E0
1.356658420E2,-1.532397032E0,4.268168449E0,3.419715166E-1
1.357659077E2,8.383710384E-1,5.448971272E0,1.092113972E0
1.358659761E2,-9.374142289E-1,-5.533907413E-1,1.859971642E0
1.359660424E2,1.602563500E0,2.553948164E-1,6.211369634E-1
1.360661102E2,-2.182357550E0,-5.488571167E0,-2.838192940E0
1.361661824E2,6.147943139E-1,5.296733379E-1,-1.573091030E0
1.362662454E2,1.605006814E0,-2.466009855E0,-6.058866903E-2
1.363663118E2,-2.391952872E-1,2.183896542E0,-8.929933608E-2
1.364663794E2,2.474267960E0,2.822728753E-1,1.878908396E0
1.365664470E2,-1.076691508E0,3.721444368E0,9.907103777E-1
1.366665042E2,-9.985007644E-1,-1.054300308E0,1.356007814E0
1.367665801E2,-2.433423281E0,-4.688948154E0,-2.654933453E0
1.368666466E2,-4.908717573E-1,-1.698152184E0,-2.251762152E0
1.369667202E2,1.644713163E0,-2.031684637E0,-2.988260984E-1
1.370667808E2,7.180305719E-1,3.018205762E-1,-4.228317440E-1
1.371668491E2,-6.832942963E-1,3.443500519E0,4.891900718E-1
1.372669196E2,3.863307238E-1,7.059211731E0,6.370194554E-1
1.373669943E2,3.771677613E-1,-5.448386073E-1,2.180675983E0
1.374670536E2,-1.250788093E0,-1.341406941E0,-6.152543426E-1
1.375671168E2,-1.903192282E0,-6.357221603E0,-1.639675260E0
1.376671788E2,-1.390133798E-1,-7.263981551E-2,-1.179693818E0
1.377672541E2,-2.117063403E-1,-1.342628717E0,-1.040416479E0
1.378673341E2,-5.385192037E-1,1.251105189E0,-7.606402636E-1
1.379673853E2,3.400339842E0,9.328443408E-1,1.838591456E0
1.380674522E2,-1.185425520E0,4.422717094E0,1.420759559E0
1.381675203E2,7.723291963E-2,-9.089143872E-1,1.816600204E0
1.382675866E2,-1.494523287E0,-2.250374556E0,-1.836984754E0
1.383676697E2,-5.501256585E-1,-8.026238084E-1,-1.113720298E0
1.384677217E2,-9.160339832E-1,-1.642696112E-1,-1.986646771E0
1.385677880E2,7.100892663E-1,-1.159369111E0,4.464294612E-1
1.386678508E2,1.921435118E0,6.591767669E-1,2.182508469E0
1.387679367E2,9.367203116E-1,6.654819489E0,1.202274412E-1
1.388679912E2,-3.674769998E-1,7.274610549E-2,2.132417440E0
1.389680572E2,-7.956935167E-1,-2.484335661E0,1.005982041E0
1.390681241E2,-2.755349159E0,-3.696903229E0,-2.234658003E0
1.391681904E2,3.716699481E-1,-4.698347673E-2,-1.909677744E0
1.392682572E2,4.211500585E-1,-1.510005713E0,-1.268880129E0
1.393683251E2,3.759460151E-1,1.774616718E0,-5.120180845E-1
1.394684011E2,2.545739174E0,-3.756289780E-1,1.385329366E0
1.395684589E2,-1.370517731E0,5.334128380E0,6.535128355E-1
1.396685171E2,6.074639559E-1,-1.272379160E0,2.365767956E0
1.397685916E2,-3.822530746E0,-1.677382827E0,-2.144249916E0
1.398686824E2,1.347832680E0,-2.523431063E0,-9.157999754E-1
1.399687270E2,8.517416567E-2,-1.611409426E0,-1.929225445E0
1.400688021E2,1.285524368E0,1.007980824E0,7.074736059E-2
1.401688708E2,-9.025949240E-1,2.638380051E0,7.384231091E-1
1.402689399E2,7.742301822E-1,7.828291416E0,-4.087818563E-1
1.403689980E2,-1.313707232E0,-4.764217436E-1,7.940117717E-1
1.404690614E2,7.406325936E-1,-2.262591839E0,7.274274826E-1
1.405691294E2,-1.944120288E0,-4.842886925E0,-1.839428186E0
1.406691962E2,6.202921271E-1,-2.098879814E0,-7.600293756E-1
1.407692681E2,2.220079750E-1,-1.163645148E0,-1.110666037E0
1.408693388E2,-5.385192037E-1,3.067207575E0,-1.212680578E0
1.409694041E2,2.469992161E0,1.318911314E0,2.195336580E0
1.410694671E2,-9.442021698E-2,3.393409729E0,1.662662268E0
1.411695457E2,-1.481763572E-1,-6.285272241E-1,1.541100025E0
1.412696077E2,-3.392481804E0,-3.579617262E0,-1.691598892E0
1.413696805E2,-9.771204591E-1,-1.004820228E0,-1.877912760E0
1.414697412E2,9.574897289E-1,-1.876524925E0,-9.891037941E-1
1.415698076E2,1.186564207E0,-2.986599803E-1,4.109992981E-1
1.416698595E2,-1.398006558E0,3.524134874E0,4.812487960E-1
1.417699354E2,3.429592848E-1,6.665203571E0,-1.302273124E-1
1.418700116E2,-6.918464303E-1,5.235646367E-1,1.593634367E0
1.419700819E2,-1.568701933E-3,-6.450205445E-1,4.152753651E-1
1.420701372E2,-4.245249748E0,-4.941236019E0,-3.317722082E0
1.421702066E2,3.449208975E0,-2.826420307E0,-1.275599599E0
1.422702743E2,1.032015204E0,-2.714021206E0,-7.893508673E-1
1.423703384E2,-8.573909402E-1,2.178398609E0,-4.389066715E-3
1.424704120E2,2.787031174E0,2.265752554E0,1.663883924E0
1.425706690E2,-1.244679451E0,4.008550644E0,7.286492586E-1
1.426707259E2,7.045915127E-1,1.888104975E-1,2.040176868E0
1.427708040E2,-2.896459103E0,-4.872818947E0,-9.878821373E-1
1.428708672E2,-5.653973222E-1,-1.315139771E0,-2.629276991E0
1.429709349E2,1.248261571E0,-2.782438040E0,-1.236504316E0
1.430710024E2,7.455194592E-1,-4.525980055E-1,-4.167231023E-1
1.431710707E2,-1.462147474E0,2.623108387E0,8.673155904E-1
1.432711360E2,9.825352430E-1,7.492926121E0,1.617662758E-1
1.433712024E2,-9.747454524E-2,1.228370592E-1,2.060946226E0
1.434712695E2,-2.060184479E0,-8.307235837E-1,-5.395070314E-1
1.435713426E2,-2.637452126E0,-5.161758423E0,-1.593249559E0
1.436713948E2,1.118758202E0,-1.189912319E0,-6.451867223E-1
1.437714774E2,-7.609426230E-2,7.068242431E-1,-1.320803761E0
1.438715378E2,-8.170737624E-1,2.671366930E0,4.091667235E-1
1.439716064E2,3.239682436E0,2.701299429E0,1.836758733E0
1.440716724E2,4.907886982E-1,1.492396951E0,1.355396986E0
1.441717398E2,-1.175651789E0,4.001698792E-1,1.331573248E0
1.442718071E2,-2.481070757E0,-6.492833614E0,-2.261331528E-1
1.443718739E2,-1.726109833E-1,-1.453195333E0,-2.238934040E0
1.444719418E2,2.037499428E0,-1.428149819E0,-7.081058621E-1
1.445720083E2,-2.648516297E-1,1.184520841E0,-1.754517913E0
1.446720791E2,-1.902581334E0,2.296906471E0,1.239943504E0
1.447721413E2,-2.355985157E-2,7.397020340E0,5.331723690E-1
1.448722103E2,-6.197643280E-1,-1.905235648E0,2.472058535E0
1.449722773E2,-1.817671061E0,1.175357938E0,-5.437830687E-1
1.450723470E2,-3.440129042E0,-6.591182709E0,-2.770386934E0
1.451724116E2,1.850574732E0,-2.258315563E0,-1.442772001E-1
1.452724778E2,-6.374794245E-1,-9.480097294E-1,-1.439922333E0
1.453725455E2,-1.836065501E-1,2.609669447E0,-7.184905410E-1
1.454726125E2,3.079635382E0,2.744059801E0,5.417245030E-1
1.455726789E2,-1.912355185E0,5.463020802E0,1.021253705E0
1.456727444E2,1.274528861E0,-8.979187608E-1,2.215495110E0
1.457728116E2,-3.586736917E0,-3.686518669E0,-1.644562244E0
1.458728911E2,-1.812784195E0,-3.241197824E0,-2.725182772E0
1.459729479E2,1.861570358E0,-2.732347250E0,9.701456130E-2
1.460730173E2,-8.647897094E-2,2.334036678E-1,-9.090805054E-1
1.461730827E2,-2.498175144E0,4.983491898E0,1.904769391E-1
1.462731501E2,2.069875240E0,5.430644989E0,1.084783673E0
1.463732170E2,-1.115176082E0,4.423195720E-1,1.539878249E0
1.464732838E2,-8.476170897E-1,-2.001141310E0,3.120391369E-1
1.465733509E2,-1.866540313E0,-2.833750725E0,-1.552321672E0
1.466734084E2,-1.646697223E-1,-2.461255491E-1,-1.588362694E0
1.467734849E2,2.020395279E0,-2.092160463E0,-1.229173779E0
1.468735524E2,5.738663077E-1,3.403794289E0,-1.091118336E0
1.469736246E2,3.295881748E0,-4.354937673E-1,1.613182187E0
1.470736939E2,-1.933124661E0,4.574822903E0,6.217477918E-1
1.471737546E2,4.559693635E-1,-9.993224144E-1,2.152576208E0
1.472738199E2,-3.259313107E0,-2.880176544E0,-1.496732950E0
1.473738950E2,-1.917242050E0,-3.016399384E0,-1.778952599E0
1.474739629E2,1.185953379E0,-1.641952634E0,-7.508664131E-1
1.475740222E2,3.056965172E-1,-3.218728304E-1,-1.217567325E0
1.476740987E2,-1.454817176E0,3.529632568E0,5.136246085E-1
1.477741619E2,1.970304370E0,5.193018436E0,-7.647116482E-2
1.478742260E2,-2.132877350E0,1.284091949E0,1.707255363E0
1.479742888E2,1.236586794E-1,1.344434917E-1,1.096390128E0
1.480743739E2,-1.655180931E0,-5.311419964E0,-1.986646771E0
1.481744284E2,-9.337490797E-1,1.439862490E0,-2.143639088E0
1.482744903E2,1.515820503E0,-2.523431063E0,-4.820857048E-1
1.483745570E2,2.659902573E-1,1.403821588E0,1.617662758E-1
1.484746342E2,4.212790489E0,1.086782455E0,1.677322984E0
1.485746923E2,-8.818255067E-1,6.117257595E0,3.719039261E-1
1.486747577E2,-4.169570506E-1,-1.694487095E0,1.698092461E0
1.487748374E2,-2.948382616E0,-3.223482609E0,-1.455193996E0
1.488748938E2,-2.077899694E0,-1.243057609E0,-2.634164095E0
1.489749615E2,1.364936948E0,-2.660876036E0,-5.627198815E-1
1.490750318E2,5.103363395E-1,-5.863775015E-1,-8.736503124E-1
1.491751009E2,-2.390662670E0,4.627357483E0,6.248021126E-1
1.492751646E2,1.732066870E0,6.257145882E0,-5.753434449E-2
1.493752292E2,-4.572741687E-1,4.954648614E-1,1.406098723E0
1.494752976E2,-1.683349162E-1,-7.665827870E-1,1.458633184E0
1.495753676E2,-2.607519865E0,-4.471480370E0,-1.163811326E0
1.496754389E2,-2.434713393E-1,-2.644515038E-1,-1.585308313E0
1.497770133E2,3.637287319E-1,-1.890574813E0,-8.760937452E-1
1.498770783E2,-2.880645096E-1,1.942604661E0,-3.886232972E-1
1.499771440E2,3.264727831E0,1.777670979E0,1.110440016E0
1.500772134E2,-1.187258124E0,4.389730930E0,1.045688272E0
1.501772802E2,-2.440753698E0,-4.637261108E-2,1.044466496E0
1.502773452E2,-4.707131982E-1,-3.518530846E0,-1.543769479E0
1.503774132E2,-1.086465359E0,-6.169207692E-1,-2.016579151E0
1.504774800E2,-1.022935390E0,-9.926028848E-1,-3.318128288E-1
1.505775483E2,1.071110725E0,-5.675732344E-2,-2.841653526E-1
1.506776124E2,6.361746192E-1,8.619840145E-1,7.518621087E-1
1.507776835E2,-7.462134361E-1,3.768481016E0,1.053629518E0
1.508777499E2,-1.572103262E0,3.622962236E-1,9.003023505E-1
1.509778180E2,1.664260864E0,-1.172197223E0,5.032399893E-1
1.510778917E2,-1.024767995E0,-1.697673947E-1,-1.568814993E0
1.511779497E2,2.947009206E-1,6.665071249E-1,-5.847110748E-1
1.512780274E2,1.609214544E-1,6.419399381E-2,-4.460446537E-1
1.513780868E2,2.487707376E0,9.585007429E-1,4.555924535E-1
1.514781499E2,3.118731022E0,3.470245898E-1,1.998638034E0
1.515782206E2,6.404506564E-1,1.392215133E0,8.844198585E-1
1.516782762E2,-6.832942963E-1,-6.480748653E-1,5.704351068E-1
1.517783509E2,-2.029030323E0,-3.458055019E0,-7.966812849E-1
1.518784195E2,-2.281928778E0,-3.863669395E0,-1.913343072E0
1.519784867E2,1.620889425E0,-1.229007721E0,-1.322636247E0
1.520785561E2,-6.693128496E-2,4.930213988E-1,-9.781082869E-1
1.521786208E2,-1.596537828E0,2.858902693E0,8.404375315E-1
1.522787001E2,8.524209261E-1,6.478279114E0,-2.456808388E-1
1.523787604E2,-1.631357193E0,-6.126447320E-1,1.928388596E0
1.524788239E2,1.535910666E-1,7.135437727E-1,8.135595322E-1
1.525789028E2,-1.691221952E0,-4.817841053E0,-1.416709423E0
1.526789507E2,1.222605228E0,-1.168532133E0,-1.476574302E0
1.527790224E2,6.832112670E-1,-2.067114830E0,-8.296680450E-1
1.528790915E2,-2.727928758E-1,1.606628776E0,-2.701154351E-1
1.529791576E2,2.005734444E0,1.338326335E-1,7.799619436E-1
1.530792251E2,-7.706480622E-1,4.048256874E0,7.701880336E-1
1.531793077E2,-5.288138241E-2,-6.653116643E-2,2.045674801E0
1.532793736E2,-2.776118755E0,-3.990118742E0,-1.370283842E0
1.533794270E2,-9.025949240E-1,-9.504531622E-1,-1.717866063E0
1.534794929E2,1.101043105E0,-2.292524099E0,-7.380381823E-1
1.535795606E2,2.103331126E-2,-4.299960136E-1,-9.365694523E-1
1.536796197E2,-1.609976888E0,3.583388567E0,5.881502032E-1
1.537797158E2,8.860185146E-1,6.166126728E0,-2.206353545E-1
1.538797616E2,-3.723638952E-1,8.234995008E-1,2.425021887E0
1.539798295E2,4.455846548E-1,-6.670117378E-1,4.189405441E-1
1.540799000E2,-2.923337221E0,-4.932072639E0,-2.212666988E0
1.541799733E2,3.704482317E-1,-2.540667951E-1,-9.359585643E-1
1.542800289E2,7.467412353E-1,-2.455625296E0,-8.229485154E-1
1.543800982E2,-1.150606155E0,2.948088884E0,-5.753434449E-2
1.544801675E2,4.915896416E0,2.228489399E0,2.136082649E0
1.545802333E2,-3.399880230E-1,3.441057205E0,3.163151741E-1
1.546802960E2,-9.343599081E-1,-4.293851256E-1,1.433587790E0
1.547803725E2,-1.958781004E0,-4.550892830E0,2.130789608E-1
1.548804330E2,-6.234294772E-1,-3.509367704E0,-1.772843957E0
1.549804988E2,3.563983440E-1,-1.849035978E0,-1.750852823E0
1.550805673E2,1.408308268E0,-3.579138815E-1,-1.463135242E0
1.551806402E2,-2.366228104E0,3.860110521E0,3.273107708E-1
1.552807179E2,1.551250696E0,6.495994091E0,7.653011680E-1
1.553807682E2,-2.178149968E-1,1.122212648E0,1.866691113E0
1.554808356E2,-3.784725666E-1,1.405521482E-1,4.836922586E-1
1.555809094E2,-4.049772739E0,-6.323013306E0,-1.317138433E0
1.556809665E2,2.482751757E-1,-9.951788932E-2,-1.194965482E0
1.557810390E2,2.232297063E-1,-2.632165194E0,-1.006208062E0
1.558811082E2,-1.469546407E-1,1.931609035E0,-3.983971477E-1
1.559811789E2,4.622681141E0,-8.679863811E-1,1.748794198E0
1.560812397E2,-2.165932655E-1,5.213177204E0,1.752053201E-1
1.561813130E2,-2.000999004E-1,-1.260772705E0,1.228337049E0
1.562813758E2,-2.065071583E0,-1.834986091E0,-2.401830405E-1
1.563814507E2,-2.294146061E0,-4.770804405E0,-1.317138433E0
1.564815143E2,-1.884934753E-1,-1.945552588E0,-1.090507388E0
1.565815786E2,-3.693095744E-1,-1.569392234E-1,-9.573388696E-1
1.566816445E2,-1.400450110E0,4.549166679E0,-1.613814384E-1
1.567817092E2,3.843217134E0,5.932165623E0,1.047520876E0
1.568817745E2,-6.179317832E-1,2.784376860E0,1.133041978E0
1.569818436E2,8.395243436E-2,-5.784361959E-1,1.285147429E0
1.570820263E2,-3.909273624E0,-5.685269356E0,-1.782006979E0
1.571820984E2,2.989769876E-1,2.663903832E-1,-2.102506608E-1
1.572821616E2,-1.933803856E-1,-1.193577528E0,-9.854386449E-1
1.573822271E2,1.448014498E0,7.196524143E-1,-4.881943464E-1
1.574823009E2,2.770537853E0,-3.970092833E-1,-2.515848540E-2
1.575823612E2,-3.729747534E-1,6.927265167E0,-7.887400389E-1
1.576824241E2,4.571911097E-1,-2.365216970E0,3.175164461E0
1.577824973E2,-1.928237677E0,1.552129239E-1,4.250491858E-1
1.578825630E2,-3.198837519E0,-6.340116978E0,-7.514772415E-1
1.579826303E2,-6.625248790E-1,-1.641341805E0,-1.630512357E0
1.580826963E2,-1.005288661E-1,-7.952933908E-1,-6.702321768E-1
1.581827661E2,-1.524455786E0,3.541849852E0,-8.553243279E-1
1.582828314E2,4.826709747E0,4.241290569E0,1.593634367E0
1.583828978E2,-1.343028784E0,3.211982727E0,9.823630005E-2
1.584829691E2,-5.892210603E-1,-8.655428886E-1,2.272916555E0
1.585830332E2,-3.288023710E0,-4.109237194E0,-8.266137242E-1
1.586830989E2,4.254261255E-1,-1.446475744E0,-1.524221778E0
1.587831647E2,3.716699481E-1,-2.360330105E0,-1.050190330E0
1.588832350E2,3.563983440E-1,-3.035468757E-1,-4.979681671E-1
1.589833060E2,-7.321634889E-1,2.368377686E0,-3.092108071E-1
1.590833681E2,1.045454383E0,6.960862637E0,-3.538039923E-1
1.591834353E2,-6.570954621E-2,-1.838172972E-1,1.544154286E0
1.592835140E2,-1.206194997E0,-2.381099701E0,3.602974713E-1
1.593835705E2,-2.250163555E0,-4.650464058E0,-1.378835797E0
1.594836482E2,3.808329403E-1,4.704193771E-1,-7.386491299E-1
1.595837091E2,3.014204800E-1,-1.015204906E0,-8.614329696E-1
1.596837650E2,-1.086465359E0,3.000012398E0,-2.365178466E-1
1.597838402E2,3.911633968E0,2.877839327E0,2.294296980E0
1.598839051E2,-1.317983270E0,2.309123755E0,4.879683256E-1
1.599839728E2,8.756337762E-1,-1.602246284E0,2.165404320E0
1.600840436E2,-2.042469501E0,-2.316958666E0,-1.501008868E0
1.601841063E2,-1.684502482E0,-2.235102892E0,-2.491832256E0
1.602841772E2,-6.558053493E-1,-1.464190841E0,-8.864784837E-1
1.603842438E2,2.444946527E0,-8.924209476E-1,1.651055813E0
1.604843088E2,9.428289533E-1,1.648778439E0,1.132431149E0
1.605843829E2,1.283691764E0,5.978591442E0,-1.053855538E0
1.606844427E2,-1.277666211E0,2.232154846E0,1.261323690E0
1.607845159E2,4.187065661E-1,-6.877811551E-1,1.084172845E0
1.608845801E2,-1.864707589E0,-3.003571272E0,-2.176014900E0
1.609846438E2,3.386832178E-1,-5.381191373E-1,-1.302273124E-1
1.610847104E2,7.241392136E-1,-1.324302793E0,7.135822624E-2
1.611847801E2,-3.211196512E-2,2.033012629E0,5.119966716E-2
1.612848438E2,4.363063335E0,-1.600413799E0,2.526425600E0
1.613849128E2,2.323926836E-1,4.668285370E0,-7.184905410E-1
1.614849783E2,1.621431857E-1,1.145425558E0,1.580195427E0
1.615850475E2,-2.183579445E0,-2.214333296E0,3.957276642E-1
1.616851070E2,-4.360702991E0,-3.756767988E0,-2.157688856E0
1.617851796E2,7.455194592E-1,-1.285207272E0,-9.921581149E-1
1.618852470E2,1.621431857E-1,-8.044563532E-1,-8.082877398E-1
1.619853202E2,-8.347888589E-1,3.067818403E0,4.164971113E-1
1.620853852E2,3.080857515E0,5.241276741E0,5.337831974E-1
1.621854556E2,-1.210471034E0,1.994528174E0,9.748279452E-1
1.622855163E2,-2.446930707E-1,-7.232112885E-1,1.786056995E0
1.623855822E2,-2.896459103E0,-3.477602720E0,-1.012927651E0
1.624856538E2,2.225504257E-2,1.161175370E-1,-1.346459985E0
1.625857173E2,-1.420677006E-1,-4.764217436E-1,-1.360509872E0
1.626857813E2,1.689917088E0,9.371204376E-1,-4.130579233E-1
1.627858526E2,3.749143839E0,-1.423873782E0,1.194128513E0
1.628859186E2,-4.456677139E-1,7.350594521E0,2.417896241E-1
1.629859862E2,-1.073026419E0,-1.598581195E0,2.197169304E0
1.630860585E2,-2.366228104E0,-1.918063760E0,-1.381685436E-1
1.631861231E2,-2.350345373E0,-4.223469257E0,-1.787504792E0
1.632861870E2,5.958575010E-1,-1.399439096E0,-9.310716391E-1
1.633862556E2,1.932973117E-1,-9.406793118E-1,-1.266436696E0
1.634863213E2,-1.518347025E0,3.602325439E0,5.669745803E-2
1.635863901E2,3.537784338E0,5.837481499E0,8.324963450E-1
1.636864655E2,-1.016215920E0,2.197946310E0,1.446415901E0
1.637865260E2,-9.442021698E-2,-3.994527161E-1,1.910673499E0
1.638865910E2,-2.958767414E0,-5.032865524E0,-2.430745840E0
1.639866582E2,-6.754214317E-2,8.161691427E-1,-1.902958274E0
1.640867296E2,1.493150145E-1,-1.715256453E0,-9.567279816E-1
1.641867975E2,1.384484529E0,2.509861998E-2,5.600504279E-1
1.642868653E2,1.918380737E0,4.081111252E-1,1.176413417E0
1.643870233E2,-5.183607340E-1,7.109302521E0,1.165622473E-1
1.644870915E2,-6.417555213E-1,-1.390276074E0,2.054837704E0
1.645871590E2,-1.642963648E0,-1.224120855E0,-6.690104604E-1
1.646872207E2,-3.394314289E0,-1.926005006E0,-2.658598661E0
1.647872922E2,2.301393270E0,-3.385362148E0,-8.021790981E-1
1.648873584E2,2.934792042E-1,-1.440367103E0,-8.767046332E-1
1.649874260E2,-4.743783772E-1,3.984727144E0,5.948697329E-1
1.650874939E2,1.835303068E0,6.227824211E0,8.019530773E-1
1.651875624E2,7.858366370E-1,1.219951034E0,2.621720791E0
1.652876278E2,1.315999180E-1,1.433753848E0,6.700061560E-1
1.653876994E2,-2.272765636E0,-5.581422329E0,-1.679381609E0
1.654877621E2,4.223717749E-1,-2.106953561E-1,-1.551099896E0
1.655878289E2,2.576893568E0,-4.835556030E0,-5.834892988E-1
1.656879055E2,-1.215357900E0,3.384857416E0,-1.400827050E0
1.657879634E2,1.342945695E0,-2.425081730E0,1.419537783E0
1.658880413E2,-1.378600672E-2,5.589470387E0,1.042633891E0
1.659880964E2,-1.026600599E0,-2.217998505E0,2.054837704E0
1.660881694E2,-2.809105396E0,-3.177667856E0,-1.393902898E-1
1.661882329E2,-2.159755707E0,-2.467842579E0,-2.477171659E0
1.662883063E2,1.902429760E-1,-9.241859913E-1,-1.799111247E0
1.663883668E2,-5.654657260E-2,-2.290213108E-1,-1.103946567E0
1.664884403E2,-2.019256592E0,5.335960865E0,7.689663172E-1
1.665885052E2,2.425398827E0,6.522261143E0,4.500946701E-1
1.666885638E2,-1.022324562E0,2.340145409E-1,1.627232075E0
1.667886357E2,3.582309186E-1,-7.885739207E-1,1.233223915E0
1.668887080E2,-2.800553322E0,-6.481226921E0,-2.287192345E0
1.669887736E2,1.106540918E0,-6.297488809E-1,-2.377395928E-1
1.670888368E2,-5.899003521E-2,-1.312696338E0,-1.179693818E0
1.671889031E2,2.707354724E-3,3.124017954E0,-8.746674657E-2
1.672889704E2,5.578074455E0,2.511320114E0,1.896012664E0
1.673890423E2,-3.120035887E0,5.419038773E0,-1.293314695E0
1.674891090E2,4.498607218E-1,-1.527720809E0,2.775658607E0
1.675891716E2,-5.143832684E0,-4.517906189E0,-1.290871263E0
1.676892393E2,4.358108342E-1,-6.053143144E-1,-1.482072115E0
1.677893059E2,3.313528299E-1,-1.472132087E0,-1.393496633E0
1.678893770E2,9.226704240E-1,-1.530164361E0,-2.554546893E-1
1.679894405E2,7.442978024E-1,3.622962236E-1,1.138539791E0
1.680895069E2,-8.647897094E-2,7.422065735E0,-1.003153801E0
1.681895775E2,-1.135334611E0,-1.009096265E0,1.987642407E0
1.682896404E2,-1.743756294E0,-7.997019589E-2,-5.753434449E-2
1.683897123E2,-2.226339817E0,-3.098866224E0,-1.585919142E0
1.684897754E2,3.496788144E-1,-1.663332939E0,-1.609742880E0
1.685898458E2,-7.333852649E-1,-7.140483260E-1,-1.624403715E0
1.686899152E2,2.281166166E-1,3.177774191E0,2.662242353E-1
1.687899820E2,4.688044071E0,6.005336642E-1,2.327894449E0
1.688900470E2,-7.956935167E-1,3.358590364E0,1.022475362E0
1.689901116E2,1.303850293E0,-6.376901865E-1,1.889904022E0
1.690901876E2,-3.343001604E0,-3.436064005E0,-8.162289858E-1
1.691902519E2,2.574381828E-1,-2.133088350E0,-1.441755056E0
1.692903188E2,-1.756653041E-1,-1.533829451E0,-1.620738506E0
1.693904010E2,8.615838885E-1,1.936974376E-1,-6.806168556E-1
1.694904521E2,-1.872038126E0,4.136832714E0,6.577888727E-1
1.695905145E2,3.170043707E0,7.371364117E0,8.174293488E-2
1.696905747E2,-3.754182458E-1,5.602165461E-1,4.726966918E-1
1.697906588E2,-1.136556268E0,-3.615790606E-1,6.645083427E-1
1.698907210E2,-3.214109182E0,-4.151387215E0,-1.006818891E0
1.699907816E2,5.396578908E-1,-1.656002522E0,-3.721299469E-1
1.700908563E2,-1.934346318E0,-2.497907430E-1,-1.662888169E0
1.701909252E2,5.096571147E-2,3.928527594E0,-1.125122160E-1
1.702909935E2,4.882298946E0,1.825929284E0,1.965651393E0
1.703910563E2,-8.341780305E-1,4.003664017E0,-1.945605734E-3
1.704911358E2,-5.256910920E-1,-3.573030233E-1,1.411596537E0
1.705911839E2,-2.296589375E0,-5.098838806E0,-8.828132749E-1
1.706912491E2,-1.277055264E0,-3.601608515E0,-1.526665330E0
1.707913218E2,6.868080050E-2,-1.840483904E0,-5.547786355E-1
1.708913912E2,1.859669387E-1,3.232008815E-1,-9.823843241E-1
1.709914538E2,4.956755936E-1,3.230919361E0,-6.793951392E-1
1.710915259E2,1.515209675E0,6.207665443E0,-4.069492519E-1
1.711915951E2,-6.790182590E-1,1.374978125E-1,1.482456923E0
1.712916596E2,-8.775494099E-1,7.159872055E-1,-4.898223281E-2
1.713917216E2,-2.732747316E0,-6.190454960E0,-1.148539662E0
1.714917929E2,5.640925169E-1,-1.094617486E0,-8.870893717E-1
1.715922383E2,5.585262924E-2,-2.492887974E0,3.348457813E-2
1.716922951E2,-1.787738681E0,3.515582561E0,-6.445758939E-1
1.717923686E2,4.742410660E0,2.223602533E0,1.888071418E0
1.718924423E2,-4.841522574E-1,3.835675955E0,6.022001505E-1
1.719925027E2,1.835234612E-1,-4.361046553E-1,1.482456923E0
1.720925774E2,-2.043080330E0,-4.763473988E0,-1.694042325E0
1.721926383E2,-1.261852086E-1,-1.194799304E0,-9.371802807E-1
1.722927107E2,1.069278121E0,-3.318777800E0,1.458837837E-1
1.723927718E2,2.549946904E-1,1.128932118E0,-7.392599583E-1
1.724928409E2,1.089979112E-1,2.562021971E0,1.862009019E-1
1.725929059E2,-3.021143973E-1,6.938871384E0,-1.250554204E0
1.726929692E2,6.111291647E-1,-1.130658388E0,2.793984652E0
1.727930438E2,-1.696108937E0,-1.422784626E-1,-5.022442341E-1
1.728931095E2,-2.316748142E0,-6.294302464E0,-1.199241400E0
1.729931799E2,4.248152375E-1,-1.181360245E0,-7.679706216E-1
1.730932484E2,1.431379374E-2,-1.813605666E0,-5.853219032E-1
1.731933086E2,-1.503075480E0,3.252299786E0,-5.590546727E-1
1.732933756E2,4.782117367E0,1.300585151E0,1.107385635E0
1.733934439E2,-1.523234010E0,4.641407013E0,2.509526014E-1
1.734935187E2,1.341724038E0,-1.364619851E0,2.269862413E0
1.735935766E2,-1.777964830E0,-4.702387810E0,-9.035826921E-1
1.736936409E2,5.616490245E-1,-4.698347673E-2,-6.873364449E-1
1.737937107E2,-7.426166534E-2,-2.203948736E0,-2.133049816E-1
1.738937786E2,2.275057733E-1,6.286334991E-1,-2.029202729E-1
1.739938453E2,1.964195728E0,6.524572372E-1,7.127667069E-1
1.740939192E2,-6.533619165E-1,6.759888172E0,-4.759770632E-1
1.741939844E2,3.038639128E-1,-1.205183983E0,2.431130648E0
1.742940519E2,-2.900124311E0,-3.261488974E-1,-1.100281358E0
1.743941131E2,7.339130044E-1,-6.966864586E0,-3.189846873E-1
1.744941820E2,-3.241055608E-1,-1.618739724E0,-1.394107580E0
1.745942481E2,-3.399880230E-1,-6.676225662E-1,-7.111601830E-1
1.746943108E2,-2.277652502E0,4.492966652E0,1.116753295E-1
1.747943812E2,2.600106478E0,5.251050949E0,1.025123522E-1
1.748944486E2,1.523693353E-1,3.105692148E0,1.412818313E0
1.749945231E2,1.193894506E0,-1.185636401E0,1.900899649E0
1.750945838E2,-2.358897686E0,-3.682242393E0,-9.292390943E-1
1.751946505E2,1.323398113E0,-1.706093550E0,-6.519062519E-1
1.752947256E2,-2.440821975E-1,-1.605911613E0,-1.390442252E0
1.753947926E2,1.774148047E-1,1.081895471E0,-5.859327912E-1
1.754948536E2,-3.845812082E-1,1.395880222E0,3.126499951E-1
1.755949190E2,4.388651550E-1,7.403739929E0,-2.279657423E-1
1.756949884E2,4.546792060E-2,-8.435517550E-1,1.604629993E0
1.757950538E2,-2.019256592E0,-8.857014775E-1,4.317687154E-1
1.758951261E2,-2.145094633E0,-5.610133171E0,-9.151891470E-1
1.759951997E2,-3.314359486E-1,-1.011539698E0,-1.506506681E0
1.760952597E2,-1.280720592E0,-5.020781159E-1,-1.059964180E0
1.761953257E2,-1.147551894E0,4.245566368E0,1.116753295E-1
1.762953899E2,3.761361361E0,3.766037464E0,1.793387294E0
1.763954638E2,-4.555099830E-2,1.671991348E0,8.722025752E-1
1.764955230E2,-6.521402001E-1,2.876381204E-2,1.214287162E0
1.765955974E2,-2.992975712E0,-5.765903950E0,-8.913654089E-1
1.766956514E2,4.089327455E-1,-3.634116948E-1,-9.005283713E-1
1.767957278E2,-1.274069399E-1,-1.651115656E0,-1.364175081E0
1.768958008E2,5.219427943E-1,7.825715542E-1,-7.093275785E-1
1.769958584E2,1.604395986E0,7.337023020E-1,3.425824046E-1
1.770959298E2,4.539950285E-3,6.705521107E0,5.062943101E-1
1.771959976E2,-3.906898499E-1,-1.656002522E0,1.998638034E0
1.772960732E2,-1.925794244E0,-9.199098945E-1,-4.301621318E-1
1.773961337E2,-3.766942024E0,-3.078707695E0,-2.527873278E0
1.774961936E2,1.787044644E0,-2.540535450E0,-7.691923976E-1
1.775962623E2,-6.143349409E-2,-2.015802145E0,-6.054804921E-1
1.776963208E2,-2.288037300E0,4.243123055E0,-7.209340334E-1
1.777964065E2,4.260437965E0,2.445346594E0,2.708463430E0
1.778964671E2,-5.605103970E-1,2.261476278E0,1.281482339E0
1.779965409E2,-1.139679104E-1,2.059147358E-1,3.837150335E-2
1.780965974E2,-2.376612902E0,-3.632151604E0,-1.208404422E0
1.781966619E2,1.199392319E0,-2.152025223E0,2.735546231E-1
1.782967312E2,-1.346083164E0,-8.881449103E-1,-1.444809318E0
1.783968022E2,6.606092453E-1,1.376332521E0,-5.761589408E-1
1.784968683E2,1.283691764E0,-7.997019589E-2,9.326782227E-1
1.785969402E2,1.238487840E0,7.009120941E0,-3.770168722E-1
1.786969933E2,5.292732120E-1,-1.691565216E-1,1.650444865E0
1.787970661E2,-1.931291938E0,-1.941887498E0,-1.049771905E-2
1.788972926E2,-2.879965782E0,-6.561250687E0,-3.849580884E-1
1.789973599E2,3.765568733E-1,-1.541159868E0,-9.103022218E-1
1.790974331E2,6.745906919E-2,-1.329800487E0,-8.828132749E-1
1.791974949E2,-1.802399397E0,3.657914400E0,-5.627198815E-1
1.792975618E2,3.831610680E0,4.908355236E0,2.943240404E-1
1.793976328E2,-9.441338181E-1,1.237055302E0,8.471571207E-1
1.794976993E2,-1.439687237E-2,-8.191171288E-1,1.437863827E0
1.795977649E2,-3.392481804E0,-3.387805462E0,-8.980848789E-1
1.796978349E2,1.247039914E0,-2.025576115E0,-1.072792411E0
1.797979028E2,3.441810310E-1,-1.726252079E0,-1.594471335E0
1.798979701E2,3.997697830E-1,-3.621899486E-1,-1.436663419E-1
1.799980326E2,-9.441338181E-1,1.449025512E0,3.413606584E-1
1.800981068E2,5.824184418E-1,7.643199444E0,-2.236896902E-1
1.801981737E2,7.284153104E-1,-1.412267327E0,2.901496887E0
1.802982348E2,-1.947174549E0,1.204068661E0,-3.037130535E-1
1.803983012E2,-3.033903837E0,-6.236880779E0,-1.003153801E0
1.804983671E2,1.010024190E0,-1.998087049E0,-8.602113128E-1
1.805984343E2,-9.808541089E-2,-7.024418712E-1,-1.055077314E0
1.806984944E2,-1.394952297E0,3.888821363E0,1.760208048E-2
1.807985736E2,3.211582422E0,4.748308659E0,5.124029517E-1
1.808986418E2,-1.375404716E0,2.272471905E0,7.347579002E-1
1.809987085E2,9.458832741E-1,-2.998816967E-1,1.891736746E0
1.810987772E2,-1.700384855E0,-5.644952774E0,-6.005935669E-1
1.811988381E2,-7.278874516E-1,-1.074458838E0,-9.133565426E-1
1.812989069E2,-1.155493140E0,-1.787949443E0,-8.944197297E-1
1.813989739E2,1.493829489E0,2.392812252E0,-9.243521094E-1
1.814990378E2,4.048467636E0,6.329095364E-1,7.274274826E-1
1.815991061E2,5.298840404E-1,3.565673590E0,3.651844263E-1
1.816991671E2,-1.128004313E0,9.229379892E-2,8.874741793E-1
1.817992405E2,-7.761458158E-1,-5.432982445E0,2.943240404E-1
1.818993102E2,-1.047980785E0,-6.147694588E0,5.942588449E-1
1.819993762E2,-2.952047825E0,-9.858833551E-1,-9.634475112E-1
1.820994532E2,1.336837053E0,1.055017471E0,3.224238157E-1
1.821995094E2,1.290411234E0,4.720819950E0,-4.503207207E-1
1.822995770E2,1.487041414E-1,7.594330311E0,2.759980857E-1
1.823996445E2,-2.404170036E-1,-1.563283503E-1,2.088435411E0
1.824997108E2,-1.667398214E0,-1.682269812E0,-2.576934919E-2
1.825997759E2,-2.785892487E0,-4.373742104E0,-2.161965132E0
1.826998404E2,1.462606788E-1,-4.519871175E-1,-7.997356057E-1
1.827999096E2,-5.910536647E-1,-2.793433666E0,4.665880501E-1
1.828999904E2,4.773496389E-1,3.036664248E0,5.058880523E-2
1.830000461E2,2.685627460E0,4.452039242E0,2.228527963E-1
1.831001138E2,-4.066407681E-2,2.447179317E0,4.203669354E-2
1.832001786E2,-6.509184837E-1,5.247863531E-1,1.888682365E0
1.833002494E2,-6.967333555E-1,-4.063422203E0,1.892552227E-1
1.834003143E2,-8.439518809E-1,-2.025576115E0,-2.157078028E0
1.835003825E2,2.049037516E-1,-4.173378468E0,9.457110614E-2
1.836004631E2,1.169459939E0,-9.376249909E-1,2.149115652E-1
1.837005080E2,1.011245847E0,3.810019732E0,-4.600945413E-1
1.838005891E2,1.347832680E0,7.714059353E0,-1.317138433E0
1.839006508E2,7.497955561E-1,1.877852917E0,1.007814646E0
1.840007165E2,-6.918464303E-1,-2.675058246E-1,1.178856969E0
1.841007862E2,-2.920282841E0,-3.024951696E0,-8.380155265E-2
1.842008502E2,-1.139679104E-1,-1.657835126E0,1.208383068E-1
1.843009225E2,-3.686986864E-1,-1.056132793E0,8.764786124E-1
1.844009924E2,1.135862470E0,2.187561512E0,-4.552076161E-1
1.845010504E2,8.988466859E-1,2.031790972E0,-8.046225309E-1
1.846011184E2,-8.830472231E-1,4.318259716E0,-1.472298265E0
1.847011798E2,3.936611116E-1,2.109370947E0,2.164182663E0
1.848012581E2,-1.536741555E-1,-2.423860073E0,1.189852595E0
1.849013237E2,-4.493871689E0,-1.759849668E0,-1.907029748E-1
1.850013922E2,4.626888633E-1,3.975938633E-2,1.302862525E0
1.851014573E2,-4.401699603E-1,1.960319757E0,1.085394502E0
1.852015237E2,1.882339716E0,2.762385845E0,3.020004988E0
1.853015944E2,2.892099857E0,6.217439651E0,-4.381034076E-1
1.854016557E2,1.143803596E0,1.100088879E-1,1.196165755E-1
1.855017281E2,1.776049137E0,3.690157533E-1,1.954044938E0
1.856017937E2,4.761279225E-1,1.590746164E0,5.374484062E-1
1.857018553E2,1.576907158E0,2.196113825E0,6.891476363E-2
1.858019235E2,7.027589083E-1,1.585248470E0,-8.889219165E-1
1.859019930E2,2.763749659E-1,-1.899259537E-1,2.112463713E-1
1.860020648E2,-1.110900044E0,6.602659076E-2,1.423813820E0
1.861021132E2,-1.119452119E0,-1.667130738E-1,1.419537783E0
1.862021865E2,2.068042755E0,-2.675536633E0,6.419063807E-1
1.863022425E2,-1.152438879E0,-1.367674232E0,3.104111739E-2
1.864023100E2,6.990253180E-2,-2.987077951E0,-3.605234921E-1
1.865023773E2,2.690446079E-1,-1.153871298E0,-1.303088665E0
1.866024516E2,-5.525691509E-1,-5.246801376E-1,-1.027588367E0
1.867025073E2,-7.426166534E-2,-7.739131451E-1,-1.133268118E0
1.868025776E2,-1.039428711E0,-7.390938401E-1,9.334937483E-2
1.869026468E2,-3.577715531E-2,-1.986480594E0,-3.733516932E-1
1.870027217E2,-1.223299146E0,-1.039639473E0,-5.694394112E-1
1.871027798E2,8.747590473E-4,-8.227823377E-1,-3.788494468E-1
1.872028488E2,-6.179317832E-1,-4.281633794E-1,-1.919246912E-1
1.873029208E2,3.912176490E-1,-1.301700711E0,-5.889871120E-1
1.874029818E2,-1.209249258E0,1.343345881E0,-6.836711764E-1
1.875030488E2,-8.098118752E-2,8.742012978E-1,3.767908216E-1
1.876031225E2,1.207333565E0,-3.786833286E-1,1.398768425E0
1.877031761E2,2.609269381E0,-1.386610985E0,1.391438007E0
1.878032507E2,1.699080229E0,7.630238533E-1,-5.633307695E-1
1.879033170E2,-3.967985213E-1,2.050117016E0,-4.222208858E-1
1.880033840E2,-1.143275857E0,-1.185636401E0,8.141703606E-1
1.881034525E2,-1.609976888E0,-2.211889982E0,1.280260444E0
1.882035180E2,-2.373626828E-1,-2.845968008E0,1.475126624E0
1.883035897E2,-5.861667395E-1,-8.740950227E-1,-4.100036025E-1
1.884036523E2,9.067194909E-2,-3.994527161E-1,6.767256856E-1
1.885037276E2,-9.343599081E-1,4.342457652E-2,-1.050801277E0
1.886037870E2,-4.829305112E-1,1.401378036E0,-9.640583396E-1
1.887038534E2,2.476643175E-1,1.383051991E0,-1.876486391E-1
1.888039216E2,1.160297036E0,-8.441625834E-1,-1.626031697E-1
1.889039980E2,1.468715519E-1,9.841570258E-1,-9.891037941E-1
1.890040565E2,1.713061631E-1,5.136582628E-2,-3.507496715E-1
1.891041253E2,-3.491510451E-1,-8.539364338E-1,1.208178520E0
1.892041895E2,-1.409613013E0,1.248661757E0,2.131195784E0
1.893042573E2,7.522389889E-1,-8.252258301E-1,-5.169050097E-1
1.894043255E2,-8.011912704E-1,3.659614325E-1,1.080101430E-1
1.895043954E2,3.441810310E-1,-1.036585212E0,7.433099747E-1
1.896044643E2,1.419914722E0,4.647890478E-2,-1.274377942E0
1.897045189E2,-8.464637399E-2,2.439848900E0,-1.029420853E0
1.898045933E2,-4.737675488E-1,-1.335298300E0,2.075607061E0
1.899046627E2,-2.417071536E-2,-2.696306229E0,2.139137030E0
1.900047291E2,-4.994238913E-1,2.143342979E-2,-1.006208062E0
1.901048021E2,-1.260562062E0,3.467324257E0,-2.523597479E0
1.902048750E2,-1.140221596E0,1.370223880E0,6.510693431E-1
1.903049316E2,3.399049640E-1,-7.372612357E-1,2.314049155E-1
1.904049988E2,-1.614863753E0,-1.416675895E-1,-1.339129686E0
1.905050726E2,-1.001555085E0,-2.035349846E0,-1.525443435E0
1.906051332E2,-8.622778058E-1,-8.380539417E-1,1.439696431E0
1.907051951E2,-1.520790577E0,-2.195396423E0,1.534380436E0
1.908052649E2,-3.890947819E0,-3.325497389E0,-2.839414597E0
1.909053353E2,-3.369879723E0,-3.854506493E0,-2.725182772E0
1.910053976E2,-2.762068748E0,-1.997476220E0,-1.819880605E0
1.911054781E2,-2.718697309E0,7.269827724E-1,-2.943261623E0
1.912055403E2,-5.385192037E-1,2.456342220E0,-1.111276865E0
1.913056143E2,-6.637466550E-1,4.653624535E0,-6.769517064E-1
1.914056723E2,-3.037569046E0,-9.218750894E-2,2.601155639E-1
1.915057385E2,-3.094447851E-1,-2.852209210E-1,4.610902369E-1
1.916058012E2,6.575548649E-1,1.101443291E0,-1.496122003E0
1.917058697E2,9.019010067E-1,1.392825961E0,-1.199852347E0
1.918059344E2,7.223066688E-1,-1.233416349E-1,-9.475650191E-1
1.919060136E2,5.604273081E-1,9.340661168E-1,9.387868643E-1
1.920060810E2,-1.489025593E0,4.520934224E-1,6.510693431E-1
1.921061359E2,-1.456649661E0,-4.660370350E-1,-5.346201062E-1
1.922062030E2,-5.165965110E-2,-5.149062276E-1,7.604142427E-1
1.923062708E2,2.377751350E0,-4.263308048E-1,-5.889871120E-1
1.924063415E2,7.442978024E-1,2.657795548E-1,-1.640897036E0
1.925064150E2,1.451679707E0,-3.224837184E-1,-9.579496980E-1
1.926064800E2,-1.048591733E0,1.007369876E0,9.143522382E-1
1.927065386E2,-3.703412056E0,6.072531939E-1,7.616358995E-1
1.928066089E2,-1.109678268E0,-9.736660719E-1,-5.631261319E-2
1.929066754E2,-7.107832432E-1,-7.280982137E-1,1.016977549E0
1.930067444E2,1.657541275E0,-1.996997893E-1,-3.959536850E-1
1.931068147E2,5.543186665E-1,2.743316293E-1,-1.288427830E0
1.932068736E2,3.761361361E0,-2.175848961E0,-1.020868778E0
1.933069419E2,1.040567398E0,1.991952211E-1,1.742074728E0
1.934071498E2,-2.383332253E0,9.798809886E-1,2.313844442E0
1.935072120E2,-1.804842949E0,1.277239770E-1,1.092724800E0
1.936072904E2,1.962363005E0,-2.711577654E0,8.465462327E-1
1.937073405E2,3.716699481E-1,-1.337741733E0,-1.245667219E0
1.938074176E2,3.252441883E-1,-1.977928519E0,-3.567566156E0
1.939074812E2,4.065571785E0,-4.920466423E0,-1.614019036E0
1.940075573E2,-1.128004313E0,1.320000440E-1,-4.741444290E-1
1.941076199E2,-5.146955252E-1,4.090406895E0,1.848976016E0
1.942076866E2,-4.126810133E-1,3.387300968E0,2.782989025E0
1.943077489E2,-2.171362162E0,6.377964616E-1,1.819043756E0
1.944078157E2,1.893946171E0,-1.772066951E0,2.191876024E-1
1.945078833E2,-1.526288271E0,-2.155690193E0,-3.321998358E0
1.946079523E2,2.278791189E0,-2.707301617E0,-6.060913205E-1
1.947080138E2,-8.225715756E-1,2.114125192E-1,-5.694394112E-1
1.948080842E2,2.036820203E-1,2.197946310E0,7.665228844E-1
1.949081524E2,-6.087687612E-1,4.991433144E0,1.519924253E-1
1.950082197E2,-1.078524113E0,-2.119038343E0,-2.760194615E-2
1.951082894E2,2.443114042E0,-2.255261183E0,1.649223089E0
1.952083534E2,-5.336323380E-1,-1.987091541E0,-1.239558578E0
1.953084345E2,3.582309186E-1,-2.882619858E0,4.708641171E-1
1.954084874E2,-1.176330969E-1,-6.877811551E-1,1.354175329E0
1.955085545E2,5.842510462E-1,2.390979767E0,1.489787340E0
1.956086231E2,1.327674031E0,2.155796528E0,1.010258079E0
1.957086831E2,-6.747421622E-1,1.011035204E0,8.172246814E-1
1.958087608E2,2.372796088E-1,8.473232388E-1,2.199002028E0
1.959088300E2,-1.572714090E0,-1.430593252E0,-1.742096096E-1
1.960088906E2,5.378253460E-1,-3.930864811E0,-1.576145411E0
1.961089583E2,-2.027197838E0,1.404432416E0,-5.395070314E-1
1.962090314E2,5.078929067E-1,-6.554052830E-1,-4.607053995E-1
1.963091003E2,2.041775465E0,1.141149402E0,1.539267421E0
1.964091597E2,4.657432139E-1,5.078786850E0,9.357325435E-1
1.965092389E2,5.818076134E-1,-7.935933769E-2,1.656553626E0
1.966092927E2,-2.660733759E-1,-1.762903929E0,-7.612510920E-1
1.967093545E2,-4.573284149E0,-3.603441000E0,-2.564525366E0
1.968094281E2,9.372626990E-2,-1.056132793E0,-2.051398516E0
1.969095001E2,-2.660733759E-1,-1.298646331E0,-5.248462558E-1
1.970095634E2,1.098599553E0,1.668326139E0,6.608431935E-1
1.971096288E2,1.903720021E0,6.455677032E0,1.064014316E0
1.972096950E2,-5.018673539E-1,2.877706885E-1,1.176413417E0
1.973097717E2,1.987408519E0,-2.656732500E-1,8.184463978E-1
1.974098346E2,-2.363173723E0,-3.359094620E0,-9.200760722E-1
1.975098983E2,-2.451749325E0,-3.139794111E0,-6.256390214E-1
1.976099687E2,-3.735856414E-1,-1.402493358E0,-4.319947362E-1
1.977100292E2,1.043621659E0,2.276136875E0,-2.169701755E-1
1.978101038E2,1.972747803E0,2.918767452E0,-7.783553600E-1
1.979101698E2,-4.646045566E-1,1.645113230E0,1.341347098E0
1.980102343E2,1.906163454E0,1.392825961E0,1.719472647E0
1.981103049E2,-1.017437577E0,-2.344447851E0,-6.213629842E-1
1.982103682E2,-1.412667394E0,-2.601011038E0,-5.315657854E-1
1.983104360E2,-1.586764097E0,-1.850868583E0,-3.452518582E-1
1.984105013E2,1.431521177E0,7.905127406E-1,-9.235365689E-2
1.985105671E2,1.694804072E0,2.826526642E0,-6.832527462E-3
1.986106377E2,2.409447879E-1,4.945618153E0,5.215659142E-1
1.987107036E2,6.477810740E-1,2.011632442E0,1.632729769E0
1.988107745E2,-9.789530635E-1,-2.282139301E0,3.474693000E-1
1.989108428E2,-5.125506401E0,-1.150817037E0,-2.047122478E0
1.990109129E2,-2.355232477E0,-1.376226187E0,-5.822675824E-1
1.991109726E2,-7.932500839E-1,1.961408854E-1,2.478982806E-1
1.992110488E2,-7.914859056E-2,4.538170815E0,2.567353487E0
1.993111192E2,6.245681643E-1,4.665841579E0,1.493452549E0
1.994111777E2,5.218743905E-2,-9.449554086E-1,1.257047653E0
1.995112424E2,1.345389128E0,-4.440459013E-1,1.326686263E0
1.996113071E2,-1.909300923E0,-8.753167987E-1,-2.745952368E0
1.997113709E2,2.108359814E0,-1.912565947E0,-1.086231470E0
1.998114521E2,-1.378458977E0,4.710302353E-1,-1.773454785E0
1.999115255E2,1.595233083E0,9.310117960E-1,9.882669449E-1
2.000115795E2,1.791931629E0,2.612112999E0,8.630395532E-1
2.001116489E2,-1.636855006E0,1.104497552E0,5.423353314E-1
2.002117125E2,-9.142013788E-1,-1.499010086E0,2.104317904E0
2.003117792E2,-1.379680634E0,-1.205794811E0,-1.797073931E-1
2.004118446E2,-2.179567004E-3,-4.580957890E-1,-2.240766764E0
2.005119102E2,-1.230018735E0,-7.238221169E-1,-8.308897614E-1
2.006123456E2,1.513377070E0,1.144203782E0,4.604793787E-1
2.007124125E2,1.428466797E0,2.584491670E-1,1.196572065E0
2.008124816E2,3.331854641E-1,2.621275902E0,1.183948442E-1
2.009125540E2,-1.344250441E0,-5.955404639E-1,-2.524003685E-1
2.010126149E2,1.138305783E0,-3.434842110E0,-5.199593306E-1
2.011126843E2,-3.674769998E-1,-6.103712559E0,-2.267034054E0
2.012127489E2,-2.172583818E0,-6.364684701E-1,-2.193119049E0
2.013128183E2,-4.059614837E-1,-7.277237717E-3,-8.693742752E-1
2.014128809E2,4.419194758E-1,3.412957191E0,1.399990082E0
2.015129535E2,2.046051741E0,7.809965134E0,1.585082293E0
2.016130180E2,8.817424178E-1,-7.691587508E-2,1.123268247E0
2.017130770E2,1.879896283E0,-1.496566653E0,1.092724800E0
2.018131582E2,-3.473115921E0,-3.309003830E0,-1.658001304E0
2.019132167E2,-1.987491608E0,-3.137350798E0,-6.647343636E-1
2.020132899E2,-1.018048406E0,-1.426928043E0,3.034870327E-1
2.021133558E2,4.718518555E-1,2.383038521E0,1.366392612E0
2.022134168E2,3.275112629E0,4.412943840E0,6.425172091E-1
2.023134841E2,-1.823848188E-1,3.354314327E0,1.822098017E0
2.024135553E2,6.037987471E-1,-1.134934425E0,1.922890782E0
2.025136213E2,-2.443197012E0,-4.015163898E0,-1.578588724E0
2.026136885E2,-4.456677139E-1,-2.937730551E-1,-2.368437529E0
2.027137551E2,8.603621721E-1,-2.294356585E0,-1.739857197E0
2.028138237E2,6.795459986E-1,1.100221395E0,-1.430554837E-1
2.029138879E2,3.472353518E-1,-1.248555422E0,-4.771987498E-1
2.030139570E2,9.238921404E-1,6.453233242E0,1.396324992E0
2.031140222E2,-7.065072060E-1,-4.153352380E-1,2.373098373E0
2.032140890E2,-7.633177042E-1,-2.159355402E0,-2.395721823E-1
