"Time (s)","Linear Acceleration x (m/s^2)","Linear Acceleration y (m/s^2)","Linear Acceleration z (m/s^2)"
3.787414200E-2,3.738357306E0,-7.109980583E-1,-1.966107368E0
1.379410880E-1,1.084518909E0,-3.013679981E-1,-2.614481449E0
2.380211680E-1,-1.485394001E0,5.733663559E0,1.514412880E0
3.380877310E-1,-4.142075539E0,7.229995728E-1,-3.580857277E0
4.381555960E-1,-2.222980499E0,-1.598042965E0,-5.778794289E0
5.382109610E-1,-2.914753437E0,-6.706399918E-1,3.815507889E-2
6.382783920E-1,-1.012640238E0,3.549557686E0,1.865859509E0
7.383441570E-1,2.183145285E0,-1.297886610E0,-6.706790924E-1
8.384124890E-1,1.521598339E0,-4.154262543E0,-2.621157169E0
9.384802540E-1,2.694573879E0,4.386535645E0,-5.813360214E0
1.038550817E0,-9.141993523E-2,2.734334946E0,-3.968939781E-1
1.138615381E0,-3.858078241E0,-2.516043425E0,-3.460160255E0
1.238681913E0,-1.275799870E0,-2.590187311E0,-2.701205254E0
1.338744643E0,-1.288526535E0,3.935409069E0,5.150122166E0
1.438814374E0,-1.540545464E0,2.721940517E0,3.170524120E0
1.538882106E0,2.687970161E0,-4.689511299E0,-3.927124977E0
1.638950802E0,3.630888224E0,-1.954703331E-1,2.456460476E0
1.739018032E0,-5.965942383E0,2.779398441E0,1.009212685E1
1.839085495E0,-4.367870808E0,-1.985795021E0,-2.507898331E0
1.939156592E0,-1.307252049E0,-2.737023115E0,-2.696193695E0
2.039225055E0,-2.373901367E0,5.548970699E0,8.451350212E0
2.139293717E0,-7.279307842E-1,8.097867966E-1,-8.128819466E-1
2.239356716E0,6.453257561E0,-4.343680382E0,-1.817826271E0
2.339420213E0,1.402880311E0,-1.390016556E0,6.379018784E0
2.439484945E0,-6.005792618E0,3.958868027E0,2.090762138E0
2.539552310E0,-1.066837549E0,-9.460926056E-2,-4.065202713E0
2.639624041E0,-9.112762809E-1,-2.730200291E0,-4.520846844E0
2.739691639E0,-4.661418915E0,1.594789982E0,3.324360371E0
2.839763937E0,-4.782459736E-1,1.906508446E0,3.547530651E0
2.939827969E0,6.366031647E0,-4.054279327E0,-2.028701782E0
3.039895267E0,2.190448761E0,-3.240743637E0,8.633489609E-1
3.139956663E0,-4.240994453E0,4.174094200E0,1.673615456E0
3.240023295E0,-8.636118174E-1,7.906737328E-1,-3.557813644E0
3.340088326E0,-3.528820515E0,-9.137029648E-1,-1.332345963E0
3.440163124E0,-5.720463753E0,-5.900774002E-1,2.141057014E0
3.540229289E0,-7.425212860E-2,2.058651924E0,2.232779503E0
3.640297920E0,4.935710907E0,-3.808577299E0,-8.179411888E-1
3.740357885E0,5.061640739E0,-5.054210186E0,-4.717082977E-1
3.840426349E0,3.367616415E0,1.525658607E0,-4.114699364E0
3.940493679E0,-3.702542067E0,2.320092201E0,4.263401508E0
4.040560944E0,-2.367918253E0,-1.590616703E0,-3.842314482E0
4.140631174E0,-5.469975948E0,-1.530091286E0,2.784930706E0
4.240698605E0,4.293489456E-1,3.813342094E0,5.079716206E0
4.340764936E0,2.629376411E0,-1.742736816E0,-3.191796064E0
4.443360631E0,4.362388134E0,-4.588528156E0,8.144798279E-1
4.543427829E0,3.229706526E0,-8.506422043E-1,3.889614582E0
4.643495693E0,-5.324000359E0,3.004766941E0,3.775518894E0
4.743567124E0,-3.509090185E0,-2.110112190E0,-3.820958853E0
4.843634256E0,-3.283869743E0,-2.343516350E0,-2.382143974E0
4.943701455E0,-1.162701726E0,5.175410748E0,6.133578777E0
5.043769386E0,1.351524472E0,2.144179344E-1,-3.396169901E0
5.143836151E0,5.084197521E0,-4.297717094E0,3.053922653E-1
5.243902916E0,4.374171257E0,-1.363857269E0,6.826637745E0
5.343962914E0,-7.994084835E0,5.141193867E0,1.169392586E0
5.444029779E0,-3.786903620E0,-1.168095589E0,-2.893234730E0
5.544097777E0,-1.297130346E0,-4.291289330E0,-5.461176395E0
5.644166007E0,-8.666200638E0,4.271451950E0,6.342552662E0
5.744234439E0,-3.010558367E0,1.100543976E0,2.905332565E0
5.844308438E0,7.178463936E0,-5.953549385E0,-1.849808216E0
5.944379836E0,4.415767193E0,-1.678515911E0,8.070712090E-1
6.044446167E0,-5.492106438E0,6.655853748E0,-5.863728523E-1
6.144506698E0,-2.424084663E0,-1.144688129E0,-6.414036751E0
6.244570162E0,8.500401974E-1,-3.043780088E0,-9.556961060E0
6.344635460E0,-6.008796215E0,1.884912014E0,1.371548653E0
6.444701425E0,-5.234525204E-1,3.163450241E0,2.415586948E0
6.544767590E0,5.586215973E0,-4.445936203E0,1.888904572E-1
6.644837753E0,1.201640129E0,-2.654090881E0,5.965886116E-1
6.744914152E0,-6.141604781E-1,3.287003994E0,-5.689732552E0
6.844982651E0,-1.178298473E0,1.208446026E0,-7.113337517E-1
6.945048748E0,-1.577980399E0,-2.163080215E0,-2.588192940E0
7.045107046E0,-3.355327129E0,-6.666879654E-1,-2.608485222E-1
7.145173277E0,2.341892004E0,4.759817600E0,2.081208229E0
7.245241109E0,2.992649078E0,-2.407228947E0,-2.514108896E0
7.345306108E0,5.046779156E0,-4.096032143E0,-3.085678577E0
7.445372572E0,5.796350479E0,8.029475212E-1,4.700341225E-1
7.545438670E0,-6.760052204E0,2.461665630E0,6.835813522E0
7.645507968E0,-4.118066788E0,-1.683336258E0,-3.330138445E0
7.745575632E0,-2.271105766E0,-2.454148769E0,-2.370209694E0
7.845643163E0,-3.462387085E0,6.855552197E0,6.490187645E0
7.945710295E0,-4.793908596E-1,-3.732657433E-1,-1.689425468E0
8.045777459E0,5.267795086E0,-6.237833500E0,1.236473560E0
8.145844423E0,4.596932411E0,-1.923693657E0,4.160372734E0
8.245912255E0,-7.581511497E0,5.804109573E0,9.632032394E0
8.345980720E0,-2.576083899E0,6.544575691E-1,-4.459871292E0
8.446047485E0,-3.627545595E0,-3.657270432E0,-5.698904514E0
8.546114750E0,-4.864307404E0,3.162797928E0,1.745443344E0
8.646184348E0,-3.547304869E-1,2.963299274E0,8.190336227E-1
8.746251312E0,4.931327820E0,-6.321090698E0,1.999242783E0
8.846318945E0,4.072628021E0,-4.424620628E0,-1.128581524E0
8.946384144E0,-3.362276077E0,5.705788136E0,-9.129669189E0
9.046451374E0,-3.268711805E0,7.765817642E-1,-2.039797306E0
9.146517738E0,-2.737040997E0,-2.309251785E0,-1.565031528E0
9.246582769E0,-3.447333336E0,-1.575088501E0,-1.703848839E-1
9.346648099E0,1.533218861E0,4.303041458E0,2.192802429E0
9.446723130E0,1.018212557E0,-2.155204535E0,1.443292141E0
9.546801928E0,5.131474972E0,-3.691270828E0,-6.200323105E-1
9.646871992E0,3.616371870E0,6.278796196E-1,6.622787476E0
9.746930656E0,-5.584353924E0,1.884326935E0,4.872247696E0
9.846989453E0,-4.017107487E0,-2.280319214E0,-3.895358086E0
9.947059285E0,-2.151737213E0,-3.077993870E0,-4.020208359E0
1.004712808E1,-6.924072742E0,6.522929192E0,7.511631489E0
1.014719288E1,-1.116186380E0,9.103388786E-1,5.242595673E-1
1.024725995E1,4.277237415E0,-5.879683971E0,1.415565491E0
1.034732324E1,5.376972198E0,-1.858208179E0,1.248788834E0
1.044739001E1,-6.388100624E0,5.829407692E0,1.239319324E0
1.054746530E1,-2.616698742E0,3.340907097E-1,-4.329652786E0
1.064753450E1,-3.278443813E-1,-2.687206268E0,-5.661230564E0
1.074760123E1,-4.427911758E0,-9.044184685E-1,3.659058571E0
1.084765703E1,-1.228653193E0,3.775968075E0,2.920009136E0
1.094772540E1,4.729460716E0,-5.006802559E0,8.202257156E-1
1.104779686E1,6.684247971E0,-4.148454189E0,-4.545755863E0
1.114786399E1,-3.965810776E0,4.652751446E0,-4.927782059E0
1.124793032E1,-1.916073799E0,1.432871819E0,-2.709745407E0
1.134799202E1,-2.170104504E0,-1.029895782E0,-3.669136047E0
1.144806475E1,-4.258535385E0,-1.619147778E0,2.021679878E-1
1.154813125E1,1.270245194E0,3.564577103E0,2.751582623E0
1.164819931E1,3.057789326E0,-2.437814713E0,5.743408203E-2
1.174836724E1,3.577982426E0,-4.664063454E0,-2.447759151E0
1.184843474E1,3.705446959E0,1.151355743E0,-8.393020630E-1
1.194850220E1,-3.026743650E0,3.072917461E0,1.058505535E0
1.204856036E1,-3.859220505E0,-2.013985634E0,-2.400883675E0
1.214862746E1,-4.468084335E0,-3.552332163E0,-5.760006905E-1
1.224869423E1,-3.076618433E0,5.855287552E0,9.417278290E0
1.234875930E1,4.246750772E-1,7.091503143E-1,-3.168895960E0
1.244882573E1,5.659041882E0,-5.906841278E0,-1.272801399E0
1.254889449E1,3.172067881E0,-2.832232237E0,5.299627781E0
1.264896316E1,-5.992653370E0,5.478878975E0,4.362479687E0
1.274903129E1,-4.079701424E0,-1.329513073E0,-3.110653400E0
1.284909688E1,-1.719918251E0,-3.022629261E0,-4.548620224E0
1.294916501E1,-5.250340462E0,4.805583954E0,4.892767429E0
1.304923258E1,-1.437344193E0,1.642514706E0,1.837019920E-1
1.314929998E1,5.158352375E0,-4.825888634E0,-9.157838821E-1
1.324936707E1,4.730258942E0,-2.915171623E0,-3.948246717E0
1.334943350E1,-3.481511593E0,5.978712559E0,-2.892293930E-1
1.344950077E1,-2.350010872E0,3.350234032E-1,-3.441823006E0
1.354956787E1,1.835216880E-1,-1.896206856E0,-5.853440285E0
1.364963400E1,-2.848548889E0,-1.246963501E0,-3.028912544E-1
1.374970336E1,1.260721922E0,3.085444927E0,3.463077068E0
1.384977183E1,4.081462383E0,-2.247977257E0,-1.207477093E0
1.394984039E1,2.821633101E0,-4.825156212E0,-3.451117992E0
1.404990596E1,2.147572279E0,4.495061398E0,-1.617777824E0
1.414997776E1,-2.631503940E-1,2.920342445E0,-2.792496681E-1
1.425004449E1,-1.973936915E0,-1.690776348E0,-5.043188095E0
1.435011045E1,-2.110882998E0,-2.804619789E0,-2.968799591E0
1.445017342E1,3.150910616E0,5.068636417E0,3.004612446E0
1.455024055E1,1.467436314E0,6.038827896E-1,-1.716229916E0
1.465030688E1,5.271465778E0,-4.967375278E0,-1.178691864E0
1.475037058E1,2.285782337E0,-2.272637129E0,4.871337891E0
1.485043808E1,-7.598039150E0,4.771038055E0,1.198269272E1
1.495050991E1,-4.038360596E0,-1.205820084E0,-3.866803646E0
1.505057838E1,-3.930422783E0,-3.864840746E0,-5.089706898E0
1.515064517E1,-5.255022049E0,5.012570381E0,8.815289497E0
1.525070977E1,-7.447488308E-1,1.746032715E0,3.952946663E-1
1.535077677E1,6.843191624E0,-7.582367897E0,1.947684288E0
1.545084724E1,1.502031803E0,-2.644007683E0,2.002845764E0
1.555091450E1,-5.534312248E0,7.466969013E0,5.990141392E0
1.565098050E1,-2.834350586E0,7.806258202E-1,-4.759696960E0
1.575104323E1,-4.959130883E-1,-2.498640060E0,-5.645124912E0
1.585110996E1,-6.316667080E0,1.694926262E0,3.282908916E0
1.595117822E1,9.953975677E-2,2.890962124E0,-6.746020317E-1
1.605124602E1,4.182205200E0,-6.075710773E0,6.638555527E-1
1.615131382E1,3.120247841E0,-5.374048710E0,-3.185388088E0
1.625138078E1,1.943618059E0,3.165795326E0,-2.339022160E0
1.635144902E1,-5.474936485E0,3.447109699E0,3.833341122E0
1.645151818E1,-3.806518555E0,-3.017148256E0,-1.920474529E0
1.655158641E1,-4.641936302E0,-2.334034443E0,-6.228985786E-1
1.665165508E1,-1.329929352E0,7.879501343E0,6.625003338E0
1.675172047E1,2.041618824E0,-2.034054756E0,-2.406336784E0
1.685178684E1,7.315643311E0,-6.591407299E0,-2.502006054E0
1.695185150E1,9.358247519E-1,1.142015457E0,4.713297844E0
1.705191693E1,-6.381032944E0,3.613110065E0,2.731688976E0
1.715198436E1,-3.461336136E0,-1.992966175E0,-3.236133337E0
1.725205409E1,-3.763133049E0,-2.914311409E0,-3.450189114E0
1.735212076E1,-6.297114849E0,6.768322468E0,1.278000259E1
1.745218989E1,-2.093985081E0,1.872725487E-1,-6.681776047E-1
1.755225389E1,6.540623188E0,-6.969655037E0,2.712743759E0
1.765232558E1,4.199103832E0,-3.381451368E0,6.268006325E0
1.775239475E1,-1.089921093E1,7.778597832E0,-5.217214584E0
1.785246758E1,-2.310930729E0,-9.769201279E-2,-2.740498066E0
1.795253038E1,-6.788183451E-1,-3.631940842E0,-6.442554474E0
1.805259234E1,-6.690412521E0,1.625076294E0,4.701933861E-1
1.815265447E1,-1.449121237E-1,3.287876129E0,4.608205318E0
1.825272857E1,5.286150932E0,-5.150426865E0,1.087150097E0
1.835279626E1,4.828198433E0,-5.772698402E0,-4.290102959E0
1.845286373E1,-2.293525696E0,5.125235558E0,-4.217294693E0
1.855292952E1,-4.424096107E0,2.519577503E0,-1.901585102E0
1.865299539E1,-1.418773174E0,-1.914153576E0,-4.524565697E0
1.875306275E1,-4.860770702E0,-2.739449024E0,-1.332164764E0
1.885312395E1,1.637612820E0,7.332152843E0,7.615087986E0
1.895319265E1,4.963231087E-1,-2.551117897E0,-1.003882408E0
1.905319363E1,5.527535439E0,-8.712799072E0,-4.443919182E0
1.915326139E1,4.911861420E0,1.594049931E0,4.843358517E0
1.925332853E1,-3.857936382E0,4.375742435E0,4.729155064E0
1.935339566E1,-4.314129829E0,-1.610323906E0,1.809451103E0
1.945346246E1,-4.597703934E0,-4.726584435E0,-5.840803146E0
1.955352959E1,2.847868204E-1,8.900441170E0,1.239346313E1
1.965359582E1,-1.043194771E0,4.621839523E-2,-1.607983589E0
1.975366235E1,7.347988129E0,-5.388415813E0,-7.572636604E-1
1.985372935E1,3.253625631E0,-2.085706711E0,9.028759003E0
1.995380358E1,-7.990584373E0,6.413647652E0,1.215461063E1
2.005387168E1,-3.937336206E0,-1.271807194E0,-3.730290651E0
2.015394148E1,-2.578984022E0,-4.161993027E0,-8.188728333E0
2.025400231E1,-5.469985008E0,4.140906334E0,3.797947407E0
2.035407224E1,-1.142902851E0,1.694694042E0,2.085916042E0
2.045413687E1,4.782794952E0,-6.444950104E0,-1.011189461E0
2.055420380E1,5.712443829E0,-4.507920265E0,-6.690919399E0
2.065426767E1,-7.022629976E-1,5.902359009E0,-2.078193188E0
2.075433413E1,-3.832108974E0,1.359969616E0,-5.484347820E0
2.085440089E1,-2.231480598E0,-2.354561329E0,-5.705949306E0
2.095446852E1,-5.377303123E0,-1.241478920E0,-4.139757156E-1
2.105453632E1,3.171905518E0,5.196724892E0,1.602789879E0
2.115460462E1,8.425943851E-1,-2.496025085E0,4.907617569E-1
2.125467175E1,7.418551445E0,-6.278075218E0,-1.646876335E0
2.135473891E1,4.152141571E0,-1.630456924E0,-1.857905388E-1
2.145481201E1,-6.792885780E0,3.695869923E0,1.028863144E1
2.155487914E1,-5.787743568E0,-2.148551941E-1,-2.515445232E0
2.165494474E1,-6.475299358E0,-3.979834557E0,-4.619070530E0
2.175501037E1,-5.130097389E0,5.491197109E0,6.794631958E0
2.185507717E1,2.692347765E-1,7.829084396E-1,1.253036976E0
2.195514564E1,5.904952049E0,-6.893179417E0,-1.250589371E0
2.205520853E1,2.794379473E0,-3.691293240E0,5.950660229E0
2.215527573E1,-7.985006809E0,7.708352566E0,1.996182919E0
2.225534273E1,-3.366440773E0,-1.646280289E-2,-3.863162279E0
2.235540880E1,-2.569270611E0,-4.053810596E0,-6.731145859E0
2.245547813E1,-5.101638317E0,-5.430388451E-1,4.279095650E0
2.255554526E1,7.962042093E-1,3.376129150E0,3.356776714E0
2.265561136E1,5.460169792E0,-3.258658648E0,-2.035036087E0
2.275567576E1,5.099026203E0,-5.208235741E0,-3.171437740E0
2.285575532E1,2.114793777E0,8.843412399E-1,-6.913396835E0
2.295582878E1,-3.687872887E0,4.328279495E0,3.704658985E0
2.305589668E1,-6.516948223E0,-2.303915977E0,-3.907834053E0
2.315595171E1,-4.870465755E0,-4.068837166E0,-5.089230537E0
2.325601395E1,8.105527163E-1,6.795156956E0,1.678187180E1
2.335608044E1,1.745865226E0,-6.751298904E-1,-1.315088749E0
2.345614724E1,6.783632755E0,-7.238452435E0,-1.462656498E0
2.355621441E1,4.537814856E-1,-3.259562492E0,6.631351471E0
2.365628087E1,-8.090760231E0,4.706822872E0,1.563292027E1
2.375635563E1,-4.432557106E0,6.387476921E-1,-3.976405382E0
2.385642493E1,-4.559875965E0,-3.485165834E0,-5.906269550E0
2.395649436E1,-8.184623718E0,3.307977676E0,4.754645824E0
2.405655689E1,2.066487074E-1,1.700548649E0,2.166483879E0
2.415662802E1,7.013071537E0,-5.903263092E0,-2.733254433E-1
2.425669392E1,4.664660454E0,-6.946992874E0,-7.817931175E0
2.435675938E1,-5.303944588E0,6.043869019E0,5.531200409E0
2.445682002E1,-5.597217083E0,2.384603977E0,-1.331509590E0
2.455688648E1,-5.684071064E0,-3.444300652E0,-4.367406368E0
2.465695258E1,-7.401672840E0,-1.927121162E0,2.923297882E-2
2.475702041E1,5.951661110E0,2.664647102E0,4.202263832E0
2.485709157E1,3.617440462E-1,-3.096037865E0,-1.643605709E0
2.495715980E1,6.123554707E0,-6.370818138E0,-2.562792778E0
2.505722703E1,1.946531296E0,1.304665089E0,4.977389336E0
2.515729070E1,-4.959914207E0,4.724062920E0,4.901420116E0
2.525735680E1,-5.365875244E0,-2.823509216E0,-5.899312973E0
2.535742929E1,-5.300592422E0,-6.049757004E0,-6.953181267E0
2.545749762E1,-7.003270149E0,8.407077789E0,1.295292473E1
2.555756465E1,-3.487912416E0,1.583927155E0,2.000708580E0
2.565762602E1,3.849979401E0,-9.322011948E0,1.447389126E0
2.575769698E1,7.884541512E0,-5.368227482E0,-3.778178453E0
2.585776381E1,-4.398135185E0,1.126373196E1,8.635160446E0
2.595783701E1,-4.054723263E0,-1.021947861E-1,-2.607422829E0
2.605789937E1,-5.342112064E0,-4.510111809E0,-1.994803905E0
2.615796707E1,-7.063558102E0,3.414961815E0,3.038074493E0
2.625802793E1,2.808834076E0,2.803673744E0,2.421684265E-1
2.635832566E1,5.017011642E0,-6.142885208E0,-1.637392521E0
2.645839256E1,8.881826401E0,-6.351546288E0,-5.464516163E0
2.655846615E1,-2.138529301E0,3.177746773E0,-4.545643806E0
2.665852425E1,-6.130779266E0,3.681402683E0,4.585090160E0
2.675859055E1,-5.122314453E0,-2.596313953E0,-4.665680408E0
2.685865135E1,-5.378800392E0,-4.450055599E0,-3.097684860E0
2.695872118E1,-5.519050598E0,8.309345245E0,1.683298874E1
2.705878911E1,-1.836092591E0,-4.244260788E-1,8.689584732E-1
2.715885604E1,7.256512642E0,-7.918417931E0,-1.603018284E0
2.725892200E1,3.654199600E0,-4.973368645E0,2.104281902E0
2.735899134E1,-5.756417274E0,7.346298218E0,1.551968575E1
2.745905873E1,-6.306377888E0,7.998223305E-1,-3.635141134E0
2.755912816E1,-4.885013580E0,-4.721790314E0,-4.979206562E0
2.765919133E1,-9.876836777E0,1.955766201E0,6.176657677E-1
2.775925893E1,1.703590870E0,3.970242500E0,3.997023106E0
2.785932776E1,2.174377203E0,-5.828597069E0,-1.587937355E0
2.795940002E1,7.493092537E0,-7.956824303E0,-5.586933136E0
2.805946712E1,1.933460712E0,1.903841019E0,-1.459025383E0
2.815953022E1,-7.275181770E0,3.409455299E0,6.249907017E0
2.825959482E1,-6.700705051E0,-2.528921127E0,-4.848012924E0
2.835966175E1,-6.281599998E0,-5.123265743E0,-5.301822186E0
2.845972895E1,-4.871728420E0,9.037260056E0,1.613847160E1
2.855979528E1,-2.469088078E0,-6.550083160E-1,2.288131714E0
2.865986124E1,9.361068726E0,-9.307282448E0,-1.011489391E0
2.875993204E1,3.583553314E0,-5.032113552E0,1.259890556E0
2.885999897E1,-8.666107178E0,7.934452057E0,1.983226013E1
2.896006800E1,-8.022479057E0,-1.004862309E0,-4.322574615E0
2.906013200E1,-4.293144226E0,-5.236093521E0,-6.464155197E0
2.916020006E1,-7.554734230E0,2.905589104E0,5.868036747E0
2.926026633E1,3.864055276E-1,3.494925022E0,1.644694328E0
2.936033576E1,3.716554642E0,-6.781570435E0,-3.801649332E0
2.946040626E1,6.984910011E0,-7.844391346E0,-3.593424797E0
2.956047352E1,-9.851547480E-1,3.889085770E0,8.723101616E-1
2.966053689E1,-9.713431358E0,2.458235741E0,1.449624538E0
2.976060282E1,-4.394261837E0,-4.161220551E0,-8.847607613E0
2.986066962E1,-5.857645512E0,-4.681701660E0,-7.080706596E0
2.996074575E1,-2.673796654E0,7.757666111E0,1.767724800E1
3.006081071E1,-2.352020264E0,-3.597056389E0,1.318415642E0
3.016087794E1,9.161926270E0,-8.515492439E0,5.294561386E-2
3.026093657E1,2.108294964E0,-2.621683598E0,1.102311230E1
3.036100604E1,-1.014407635E1,4.449396610E0,1.544922733E1
3.046107407E1,-6.904634953E0,-1.667973042E0,-6.287449360E0
3.056114130E1,-3.916181564E0,-5.988593102E0,-8.191718102E0
3.066120366E1,-1.061897850E1,4.185355186E0,8.626263618E0
3.076126936E1,-6.836212873E-1,3.542515278E0,1.789252758E0
3.086133716E1,6.770425797E0,-6.640882969E0,-4.458745956E0
3.096140609E1,7.355571747E0,-5.983813286E0,-4.822838783E0
3.106147492E1,-6.206925392E0,5.366531849E0,5.405469894E0
3.116154222E1,-6.176597595E0,2.412258625E0,-1.943845272E0
3.126160879E1,-4.400648117E0,-3.791649818E0,-7.781678200E0
3.136167582E1,-5.395674706E0,-3.747256756E0,-3.447915554E0
3.146174232E1,1.092174172E0,6.019280910E0,1.466417789E1
3.156180988E1,7.762405872E-1,-2.459799290E0,1.076903820E0
3.166187421E1,8.075366020E0,-8.393836975E0,-4.461585045E0
3.176194478E1,1.934647083E0,-2.506327391E0,5.592726231E0
3.186201284E1,-8.763431549E0,2.742230415E0,1.625143623E1
3.196208867E1,-6.749372959E0,-1.089545250E0,-4.768421173E0
3.206215500E1,-7.367000580E0,-6.407075882E0,-4.770586967E0
3.216222144E1,-1.097796059E1,6.259068966E0,1.498733330E1
3.226228133E1,-2.409659386E0,3.584032536E0,4.819166660E0
3.236234603E1,7.375770092E0,-8.028228760E0,-3.334060907E0
3.246241313E1,6.709401131E0,-5.519706726E0,-4.981750965E0
3.256248069E1,-8.049360275E0,6.835735798E0,7.347971439E0
3.266254663E1,-6.552982807E0,4.684562683E-1,-2.833606243E0
3.276261272E1,-5.276400566E0,-5.039622307E0,-6.225670815E0
3.286268002E1,-7.383911610E0,-1.387152195E0,-5.658793449E-1
3.296274802E1,2.946984053E0,3.531622887E0,3.252367973E0
3.306281678E1,4.644855976E0,-5.426406860E0,-3.123191595E0
3.316288724E1,5.805484772E0,-7.519118309E0,-3.795719147E-1
3.326297141E1,2.358278036E0,-4.945206642E-1,6.194046974E0
3.336303751E1,-1.030706406E1,2.092179775E0,8.270893097E0
3.346310074E1,-6.028195858E0,-2.960984230E0,-5.835205078E0
3.357310435E1,-6.404945850E0,-5.651402950E0,-6.553504944E0
3.367317014E1,-3.916042805E0,8.749526024E0,2.390113068E1
3.377323754E1,3.557975292E-1,-1.094469547E0,1.015803814E0
3.387330104E1,8.027864456E0,-1.091825867E1,-2.117868900E0
3.397337030E1,4.848569393E0,-5.226173878E0,2.933585167E0
3.407343713E1,-7.727090359E0,7.641608715E0,1.668951035E1
3.417350246E1,-7.177921295E0,-7.910480499E-1,-4.997157097E0
3.427356960E1,-4.456650734E0,-3.626503706E0,-9.249279976E0
3.437364296E1,-6.763272285E0,1.994563103E0,7.175853729E0
3.447371036E1,7.298215628E-1,2.480442524E0,9.094915390E-1
3.457377822E1,9.097530365E0,-7.432204723E0,-6.221772194E0
3.467383706E1,6.430951118E0,-6.712450504E0,-5.753336906E0
3.477390322E1,-3.965884209E0,7.269697666E0,3.422022820E0
3.487396899E1,-5.817302704E0,2.117037773E0,2.392043591E0
3.497404178E1,-4.829461098E0,-4.326238632E0,-6.809535503E0
3.507410928E1,-8.598602295E0,-4.399879456E0,-5.139464378E0
3.517417708E1,1.706302643E0,3.829956055E0,1.236717319E1
3.527424058E1,2.444913626E0,-3.743765593E0,-2.987699986E0
3.537430738E1,5.580310822E0,-8.991340637E0,-3.465300083E0
3.547437434E1,3.592994928E0,1.187565327E0,4.852499962E0
3.557444160E1,-9.496909142E0,4.169211864E0,4.331057072E0
3.567451084E1,-5.280566216E0,-2.810414076E0,-4.753029346E0
3.577457773E1,-6.804442883E0,-5.529366016E0,-4.980326653E0
3.587464446E1,-4.040040016E0,6.316300869E0,1.974502945E1
3.597471330E1,-1.247043848E0,-8.845381737E-1,-9.386234283E-1
3.607478083E1,7.027023315E0,-8.914966583E0,-4.577083588E-1
3.617484832E1,3.461407185E0,-2.713522911E0,6.480051994E0
3.627491196E1,-7.601029396E0,6.697041988E0,9.828386307E0
3.637498189E1,-6.541517258E0,-1.351251602E0,-3.926919460E0
3.647505875E1,-4.774952888E0,-3.787957430E0,-5.520664692E0
3.657513228E1,-8.914794922E0,3.130392075E0,7.894470215E0
3.667519452E1,-3.861718178E-1,1.712017536E0,3.272107124E0
3.677525128E1,7.334711075E0,-5.823620319E0,-2.155369282E0
3.687531171E1,3.480076790E0,-6.313817024E0,-1.989311695E0
3.697538088E1,-3.153718472E0,6.218748093E0,3.904719353E-1
3.707544857E1,-5.166103363E0,1.725699425E0,-2.246526718E0
3.717552037E1,-3.020725965E0,-1.738497257E0,-6.938906193E0
3.727558820E1,-5.655285835E0,-1.548828125E0,-1.732564926E0
3.737565554E1,1.686047316E0,2.497739792E0,3.612036705E0
3.747572207E1,2.965111971E0,-4.331041336E0,-1.218325138E0
3.757578803E1,5.409163475E0,-6.116691113E0,-2.463555336E0
3.767585306E1,3.189677596E-1,1.990420341E0,1.521073341E0
3.777591566E1,-5.109187126E0,4.442902088E0,3.790413380E0
3.787591739E1,-3.837214708E0,-2.632025480E0,-4.627263069E0
3.797599139E1,-5.347801208E0,-3.199343443E0,-6.259197712E0
3.807605935E1,-2.721007586E0,7.161996365E0,1.116758442E1
3.817619248E1,1.302831769E0,4.894261360E-1,2.068095207E0
3.827626138E1,2.944423914E0,-6.561189651E0,-1.242437363E0
3.837632838E1,3.295144558E0,-1.287855148E0,5.503730774E0
3.847639818E1,-5.099559307E0,3.039240837E0,1.012558937E1
3.857645864E1,-4.052422523E0,-9.062871933E-1,3.936004639E-2
3.867652380E1,-3.310768604E0,-2.875832796E0,-3.727162361E0
3.877659817E1,-5.035572052E0,2.395768642E0,4.949665546E0
3.887667956E1,-1.265125155E0,2.835077286E0,2.472630024E0
3.897675423E1,4.529979706E0,-5.545586109E0,-1.885715008E0
3.907681216E1,6.372924328E0,-4.557927608E0,-2.549118519E0
3.917686482E1,-3.773001194E0,7.098466873E0,-2.051365852E0
3.927692629E1,-4.018644333E0,1.726743698E0,-1.856173515E0
3.937699888E1,-3.058517456E0,-2.657117128E0,-4.273962021E0
3.947706855E1,-4.915995598E0,-2.337481976E0,-4.304519653E0
3.957713561E1,3.728047371E0,5.140439510E0,7.059618950E0
3.967719444E1,2.258292913E0,-2.171419144E0,-1.088625431E0
3.977725848E1,4.585446835E0,-7.602591991E0,1.589244366E0
3.987732647E1,4.233323097E0,5.354833603E-2,6.124011993E0
3.997739574E1,-9.269955635E0,2.739475727E0,7.951591492E0
4.007746407E1,-4.658383369E0,-1.365458012E0,-4.874660969E0
4.017753090E1,-3.771481037E0,-2.888602257E0,-3.372387409E0
4.027759740E1,-6.068983078E0,4.778061867E0,6.169280529E0
4.037766366E1,-1.508098722E0,2.368219852E0,2.301274300E0
4.047773019E1,7.089384079E0,-6.628551483E0,5.332813263E-1
4.057780082E1,3.632784843E0,-6.545958519E0,-4.917632103E0
4.067786622E1,-5.704351664E-1,6.902476311E0,1.289783955E0
4.077793312E1,-4.289747238E0,1.944199562E0,-2.370816708E0
4.087799678E1,-1.673587918E0,-1.480975628E0,-5.721662521E0
4.097839915E1,-6.865566254E0,1.326969624E0,4.894462109E0
4.107846691E1,6.118969321E-1,2.928433418E0,2.831308842E0
4.117853468E1,2.017387867E0,-5.367279530E0,1.547063351E0
4.127860181E1,4.424757957E0,-6.135033607E0,-8.456954956E-1
4.137866894E1,2.803873777E0,2.785286903E-1,-2.895562649E0
4.147874184E1,-7.601303101E0,2.567514420E0,8.004281998E0
4.157880890E1,-3.952273846E0,-2.083163261E-1,-5.358307838E0
4.167887554E1,-6.224529743E0,-2.263424397E0,-2.431987762E0
4.177893933E1,-1.829215288E-1,6.342278957E0,1.015437508E1
4.187900693E1,-4.821467400E-1,-1.043025494E0,-1.727058411E0
4.197907443E1,4.953026772E0,-8.099841118E0,1.825563431E0
4.207914012E1,2.903436184E0,-1.571280956E0,4.605979919E0
4.217920685E1,-6.241430759E0,4.775299549E0,9.089244843E0
4.227927555E1,-5.817354202E0,-1.497470379E0,-5.335368156E0
4.237934172E1,-2.737608433E0,-3.222253323E0,-5.278182030E0
4.247941355E1,-6.545719147E0,7.045593739E0,1.239660454E1
4.257948201E1,7.779932022E-2,8.716936111E-1,-2.898960114E-1
4.267955314E1,5.817162514E0,-7.414918423E0,-2.616320133E0
4.277961874E1,6.180523396E0,-3.967154503E0,-2.070777416E0
4.287968864E1,-4.649992466E0,4.818437099E0,5.746303558E0
4.297975244E1,-3.901680946E0,3.676424026E0,-9.618244171E-1
4.307981644E1,-5.541566372E0,-2.301575422E0,-6.703918934E0
4.317987770E1,-6.639732361E0,-2.983450890E-1,2.047830582E0
4.327994410E1,3.649294853E0,2.762363434E0,6.946263313E-1
4.338001123E1,4.242461205E0,-4.280933380E0,-3.559701443E0
4.348007829E1,4.952569008E0,-7.122558594E0,-5.368661880E-1
4.358014836E1,3.523453712E0,1.656952858E0,2.214900017E0
4.368021329E1,-6.533360004E0,3.444430351E0,1.054440212E1
4.378028466E1,-5.256774902E0,-1.564228535E0,-3.344505787E0
4.388034892E1,-4.690540791E0,-3.351380110E0,-6.507727623E0
4.398041822E1,-6.240048409E0,7.232295990E0,1.176451111E1
4.408048348E1,7.241885662E-1,-4.953722954E-1,-9.857974052E-1
4.418055175E1,6.525897980E0,-7.255739689E0,-5.287013054E-1
4.428061894E1,3.480057716E0,-4.037909985E0,4.458953857E0
4.438068408E1,-8.203226089E0,4.050789833E0,1.407372189E1
4.448075011E1,-3.811975241E0,-3.084397316E-1,-6.403910637E0
4.458081784E1,-2.793805361E0,-1.924572468E0,-4.832382202E0
4.468088814E1,-6.913314819E0,2.172670364E-1,3.418031216E0
4.478095467E1,2.790883064E0,3.759778023E0,6.567192078E-2
4.488102120E1,4.645647049E0,-5.841177464E0,-1.030811787E0
4.498108526E1,5.557320595E0,-7.109048367E0,-5.781706333E0
4.508115293E1,-2.982274890E-1,6.692978382E0,-3.491599560E0
4.518115843E1,-4.954005241E0,4.147037983E0,-2.534084320E0
4.528122519E1,-5.752284050E0,-2.393344164E0,-3.391482592E0
4.538129192E1,-4.200402737E0,-2.686268330E0,-2.622748852E0
4.548141985E1,-1.712579846E0,3.791798592E0,1.192000961E1
4.558148735E1,1.559234500E0,-2.616625786E0,-2.845543861E0
4.568155675E1,6.527395248E0,-7.036556244E0,-5.754823685E-1
4.578163181E1,2.457257271E0,-2.506385803E0,6.521121502E0
4.588169898E1,-7.633039474E0,4.597748280E0,1.616626740E1
4.598176411E1,-7.015061855E0,-1.235452175E0,-1.121330261E-1
4.608183100E1,-3.975784779E0,-2.568539143E0,-5.523778915E0
4.618189827E1,-2.376743793E0,6.383088589E0,1.172316074E1
4.628196557E1,-2.972186089E0,1.153831482E-1,1.556871891E0
4.638202653E1,5.284254074E0,-8.424119949E0,3.678982258E0
4.648209353E1,6.612850189E0,-3.336051226E0,-5.834957123E0
4.658216459E1,-5.129956722E0,6.191684723E0,2.055305481E0
4.668223179E1,-3.988706112E0,1.438020706E0,-2.630087376E0
4.678229845E1,-1.012409925E0,-1.864450932E0,-5.025115967E0
4.688236298E1,-7.787052631E0,-3.311923981E0,-3.301889658E0
4.698243038E1,-8.547141552E-1,2.645208359E0,2.934514046E0
4.708249741E1,3.400625706E0,-1.914775848E0,1.636924744E0
4.718256441E1,7.169724464E0,-5.376980305E0,1.095682144E0
4.728263070E1,2.904390335E0,8.241815567E-1,-7.745031357E0
4.738269834E1,-4.191895008E0,3.136559963E0,-1.051726341E0
4.748276390E1,-6.559012413E0,-2.911808491E0,-2.881652832E0
4.758283200E1,-5.048279762E0,-2.587808609E0,-2.148261070E-1
4.768289699E1,-1.628372669E0,7.017723083E0,1.094823647E1
4.778296472E1,1.941222191E0,-9.681558609E-1,-1.236421108E0
4.788303002E1,5.979496956E0,-7.819424629E0,2.182175636E0
4.798310315E1,3.448619127E0,-2.597071171E0,2.963012695E0
4.808317015E1,-4.208270550E0,3.995292664E0,1.126424026E1
4.818326163E1,-5.168273926E0,3.335046768E-1,-4.032188416E0
4.828332956E1,-4.482863903E0,-3.762752533E0,-3.378147125E0
4.838340183E1,-8.499717712E0,3.358900070E0,6.130112648E0
4.848346606E1,-1.148732066E0,2.357968330E0,1.442153931E0
4.858352863E1,5.667084217E0,-4.993806839E0,-1.333933353E0
4.868358839E1,6.946599483E0,-6.803905964E0,-4.126439571E0
4.878365432E1,-1.241839051E0,4.541704655E0,-2.956485748E0
4.888372132E1,-6.051218987E0,1.855598450E0,2.319162369E0
4.898379548E1,-5.611264229E0,-2.129652977E0,-4.730544090E0
4.908386282E1,-6.441092014E0,-8.322992325E-1,-7.756280899E-1
4.918393008E1,2.885575294E0,5.616916180E0,5.292528152E0
4.928399244E1,-5.390069485E-1,-1.790872574E0,-1.725402832E0
4.938406564E1,5.513222694E0,-8.396523476E0,2.813403606E0
4.948414004E1,3.922642946E0,-3.646471739E0,2.529977798E0
4.958420764E1,-8.553703308E0,4.580627918E0,1.450605392E1
4.968426754E1,-3.414252758E0,1.839371681E0,-3.871338367E0
4.978432820E1,-4.402359962E0,-2.348736525E0,-4.435673714E0
4.988439466E1,-1.002096939E1,2.212841511E0,8.041765213E0
4.998446389E1,6.370677948E-1,2.311207771E0,-1.744461060E-1
5.008453016E1,3.554589987E0,-6.930528164E0,-2.076183319E0
5.018459776E1,7.873648643E0,-5.199253082E0,-7.083679676E0
5.028466429E1,-3.715224743E0,6.761265278E0,4.244766235E0
5.038473149E1,-4.774055004E0,3.310030460E0,-2.878767014E0
5.048480262E1,-4.411551476E0,-2.854596138E0,-4.336434364E0
5.058487211E1,-5.458756447E0,-3.428335667E0,-2.722547531E0
5.068493848E1,3.300976276E0,6.139386177E0,8.185374260E0
5.078500021E1,-7.117438912E-1,-2.190632820E0,-1.907685757E0
5.088506464E1,4.837026119E0,-7.318503380E0,-1.435193539E0
5.098513530E1,3.274728775E0,-1.161086559E0,1.532252312E0
5.108520357E1,-4.842993736E0,4.154803753E0,1.586757946E1
5.118527093E1,-5.892069340E0,-1.233368874E0,-2.647033691E0
5.128533533E1,-5.732398987E0,-4.666552544E0,-6.386297226E0
5.138540389E1,-6.793419361E0,7.924515724E0,1.077700615E1
5.148547116E1,-1.981108189E-1,2.186117649E0,-4.970579147E-1
5.158554456E1,5.405088902E0,-7.737418652E0,2.618789673E-1
5.168561419E1,4.615516365E-1,-3.732542515E0,-2.916073322E0
5.178568202E1,-3.054268599E0,8.136343956E0,4.173781395E0
5.188574262E1,-2.430270672E0,2.860593796E-2,-3.352951050E0
5.198580571E1,-2.554392815E0,-3.517486334E0,-6.700688839E0
5.208587181E1,-5.923810959E0,3.380175114E0,3.954660416E0
5.218593894E1,-7.957099676E-1,4.719274044E0,2.751900673E0
5.228600621E1,2.492988348E0,-3.199170113E0,-5.336195946E0
5.238607357E1,4.689143658E0,-7.624621868E0,-2.973390102E0
5.248614204E1,1.440815210E0,2.630399227E0,-3.252379417E0
5.258620960E1,-4.728878021E0,4.877309799E0,-5.530490875E-1
5.268627457E1,-6.196281433E0,-1.368486881E0,-3.567078352E0
5.278634293E1,-5.759512424E0,-2.442397594E0,-2.781629086E0
5.288640936E1,-2.232245684E0,7.964172840E0,1.248986435E1
5.298647836E1,-1.271950006E-1,-5.233635902E-1,-3.054633141E-1
5.308654289E1,6.991230965E0,-8.835099220E0,1.163086414E0
5.318661012E1,3.443561077E0,-2.857470036E0,5.880059242E0
5.328668362E1,-5.190477848E0,5.041551113E0,9.816698074E0
5.338675238E1,-6.432229519E0,-9.614067078E-1,-4.311871052E0
5.348681901E1,-1.918869495E0,-3.734744787E0,-9.483718872E0
5.358687988E1,-9.179263115E0,2.775306225E0,6.062988758E0
5.368694828E1,8.235144615E-1,3.518035889E0,-3.471188545E-1
5.378701734E1,5.481939316E0,-4.649590492E0,-2.937098503E0
5.388708451E1,4.714839935E0,-4.969373226E0,-4.433527946E0
5.398715284E1,-1.358825326E0,3.970586777E0,-1.405340195E0
5.408722397E1,-2.791122437E0,3.372446060E0,-3.227482796E0
5.418729210E1,-6.388431549E0,-3.137051821E0,-3.857090712E0
5.428735533E1,-5.061301231E0,-2.260598660E0,-5.550017357E0
5.438741793E1,-4.311548233E0,6.358788013E0,1.447184944E1
5.448748412E1,1.955134392E0,-8.475151062E-1,-1.471059799E0
5.458755142E1,7.752772808E0,-7.246416092E0,-2.686816692E0
5.468761979E1,4.340682030E0,-2.432768822E0,1.206381798E0
5.478768718E1,-7.442598343E0,2.391199112E0,1.420371437E1
5.488776095E1,-5.735216618E0,5.303678513E-1,-6.746843815E0
5.498782548E1,-4.694209099E0,-2.569545269E0,-3.746734142E0
5.508789285E1,-9.968751907E0,4.943615437E0,1.313082695E1
5.518795328E1,-1.575483680E0,-1.153869629E-1,-2.202391624E-1
5.528802064E1,6.676890850E0,-7.439666748E0,-2.007818222E-2
5.538808927E1,5.405120850E0,-5.820663452E0,-5.003943443E0
5.549805450E1,-3.775128126E0,7.798890114E0,1.661954498E1
5.559812210E1,-5.145269394E0,-6.718058586E-1,-4.123615265E0
5.569818563E1,-5.760617733E0,-4.472661018E0,-7.204481125E0
5.579825246E1,-1.106784725E1,4.277625561E0,8.445523262E0
5.589831959E1,2.886706591E0,2.407649994E0,3.233355045E0
5.599838862E1,4.787342072E0,-8.594949722E0,-2.133506775E0
5.609845606E1,3.844209433E0,-6.814990520E0,-2.097244263E0
5.619852322E1,-1.862160444E0,3.995934486E0,1.479280949E0
5.629859035E1,-3.585260153E0,1.525591850E0,-2.522301197E0
5.639865745E1,-4.498300076E0,-9.322948456E-1,-6.063890457E-1
5.649872455E1,-9.365894318E0,-9.810934067E-1,8.120427132E-1
5.659879158E1,-1.543977737E0,5.095880985E0,9.573665619E0
5.669885625E1,2.343399525E-1,-3.125769377E0,-1.387510300E-1
5.679892358E1,7.049314022E0,-9.282563210E0,-5.556607246E-1
5.689899151E1,4.594749928E0,-2.616243124E0,4.118785381E0
5.699906074E1,-6.312487602E0,3.421870708E0,1.674180412E1
5.709912730E1,-7.378561974E0,-1.203976631E0,-3.716771603E0
5.719919464E1,-6.433153152E0,-3.017041445E0,-4.576567650E0
5.729926207E1,-8.799552917E0,8.188805580E0,8.638875008E0
5.739932957E1,-1.435173154E-1,-3.001556396E-1,1.127700329E0
5.749939580E1,5.709170818E0,-8.217422485E0,-2.145182133E0
5.759946343E1,4.172436714E0,-5.609448910E0,-6.386674881E0
5.769952923E1,1.156167269E0,5.079009056E0,1.491850567E1
5.779959903E1,-6.185243607E0,2.049396038E0,-3.066659927E0
5.789966549E1,-5.284033298E0,-2.372769594E0,-5.986467361E0
5.799974092E1,-7.326235294E0,7.130665779E-1,4.840959549E0
5.809980809E1,5.664805889E0,3.174155712E0,-1.316367626E0
5.819987622E1,2.291073799E0,-4.717824936E0,-1.835464954E0
5.829993895E1,3.414207220E0,-7.141072273E0,-3.321924210E-1
5.840000871E1,2.028198719E0,3.714859486E0,-2.170950890E0
5.850007784E1,-2.368762255E0,2.422099590E0,3.628388405E0
5.860014248E1,-4.222842216E0,-1.207032681E0,-3.839076042E0
5.870020227E1,-5.977884293E0,-1.859524727E0,-1.965582371E0
5.880026627E1,4.090107441E0,3.240030289E0,3.970781326E0
5.890033304E1,-2.036443710E0,-1.915085793E0,-3.625847101E0
5.900040290E1,3.110596180E0,-8.069114685E0,1.367611885E0
5.910047050E1,6.855531693E0,4.713726044E-1,3.969429970E0
5.920053870E1,-5.118105888E0,5.288185120E0,1.435649681E1
5.930060509E1,-5.730159283E0,-2.075004578E-1,-6.036340237E0
5.940067223E1,-4.813303947E0,-3.724673033E0,-8.261628151E0
5.950073859E1,-9.091755867E0,5.910876274E0,1.123390961E1
5.960080539E1,1.619705796E0,5.663232803E-1,1.128608227E0
5.970087555E1,4.552818298E0,-7.162593842E0,-1.720716953E0
5.980094269E1,6.130764484E0,-5.574995995E0,-6.600179195E0
5.990100982E1,-3.906672001E-1,5.802311897E0,3.325667858E0
6.000107388E1,-4.537469387E0,1.830491066E0,-3.081473827E0
6.010114215E1,-3.960969448E0,-1.749012947E0,-4.718270302E0
6.020121414E1,-7.035241604E0,2.539601326E-1,1.508080482E0
6.030128128E1,5.427640915E0,3.682105541E0,3.794629097E0
6.040134641E1,1.983878374E0,-4.104209900E0,-2.185707092E0
6.050140890E1,5.722486496E0,-8.123685837E0,-4.621295452E0
6.060148067E1,5.443139076E-1,-6.103515625E-2,1.225997925E0
6.070154700E1,-6.647502899E0,2.457083225E0,9.595630646E0
6.080161896E1,-6.722226143E0,-1.950626612E0,-4.271465302E0
6.090168556E1,-5.962164402E0,5.103921890E-2,-2.208341599E0
6.100175443E1,-1.482169509E0,6.908608437E0,1.490374947E1
6.110182059E1,-4.332178831E-2,-2.574199200E0,-1.291089058E-1
6.120188352E1,6.536205292E0,-1.065262222E1,1.022672653E-2
6.130195505E1,2.433258295E0,-2.317253590E0,3.349759579E0
6.140202655E1,-7.864443779E0,5.781043530E0,1.609966469E1
6.150209355E1,-6.562880039E0,1.085654259E0,-4.837482452E0
6.160215598E1,-4.446160793E0,-1.716019630E0,-5.804514885E0
6.170221318E1,-7.762596130E0,6.566342354E0,1.020873547E1
6.180228034E1,-1.505723953E0,-9.139099121E-1,9.539251328E-1
6.190234807E1,6.221240044E0,-7.656116009E0,-2.002707958E0
6.200241687E1,3.824302673E0,-4.395810604E0,-2.983757973E0
6.210248500E1,-2.134494305E0,7.838185310E0,9.378166199E0
6.220255846E1,-6.172617912E0,8.353843689E-1,-5.078654289E0
6.230262712E1,-4.703392029E0,-3.595197439E0,-7.055355072E0
6.240269319E1,-7.284051895E0,9.414696693E-1,6.738522053E0
6.250275796E1,5.449013710E0,4.483345032E0,2.533168793E-1
6.260282325E1,1.553727865E0,-3.936017752E0,-5.165319443E-1
6.270308406E1,6.808303356E0,-8.623573303E0,9.499726295E-1
6.280314655E1,1.473547578E0,1.444173336E0,-1.504641533E0
6.290322018E1,-7.962757111E0,3.077595234E0,8.245662689E0
6.300328975E1,-7.172554493E0,-2.194195271E0,-3.449604273E0
6.310335731E1,-7.547394276E0,-2.398419380E0,-3.862047195E0
6.320341841E1,2.809022665E0,7.596346855E0,1.231889153E1
6.330348557E1,-1.029208183E0,-2.551635265E0,2.227353573E0
6.340355554E1,7.288490772E0,-9.666377068E0,-5.508103371E-1
6.350362314E1,3.125706434E0,-3.740712881E0,6.591416359E0
6.360369027E1,-7.051835060E0,8.028327942E0,1.217016983E1
6.370375237E1,-5.957571030E0,-4.473481178E-1,-4.360078812E0
6.380381933E1,-6.145844936E0,-3.524577141E0,-5.110152245E0
6.390388996E1,-8.649633408E0,6.213373661E0,1.325222015E1
6.400395969E1,2.007504702E0,1.440670013E0,-2.863436460E0
6.410402659E1,5.943948746E0,-8.565798759E0,-7.996492386E-1
6.420409026E1,6.724330425E0,-5.880278111E0,-7.912257195E0
6.430415935E1,-6.920773983E-1,6.386330605E0,7.749554157E0
6.440423032E1,-6.140762329E0,1.717165470E0,4.447317123E-2
6.450429978E1,-6.001006603E0,-3.120877743E0,-7.721310616E0
6.460436455E1,-8.467533112E0,-4.495925903E-1,-1.611452103E0
6.470442545E1,2.596220255E0,7.859540462E0,1.054859161E1
6.480449664E1,-6.631823778E-1,-3.877605677E0,7.011175156E-1
6.490456368E1,7.559285641E0,-1.109060097E1,-4.745297432E-1
6.500463324E1,1.807902575E0,-2.376605034E0,9.549539566E0
6.510469394E1,-9.406867981E0,5.695702076E0,1.321786022E1
6.520476114E1,-6.220896721E0,-5.523633957E-1,-5.664736271E0
6.530482813E1,-7.399378777E0,-4.624240875E0,-4.055617332E0
6.540489923E1,-1.158017826E1,7.243571281E0,1.223324585E1
6.550496643E1,8.720778823E-1,2.124067783E0,2.086043358E-1
6.560503353E1,3.411176205E0,-6.911568165E0,-6.514835358E-2
6.570509462E1,6.449524403E0,-6.977212906E0,-5.935878754E0
6.580516159E1,-2.208057404E0,4.481211185E0,5.648340702E0
6.590523025E1,-2.316478252E0,3.115280628E0,2.500438690E-1
6.600529938E1,-8.329360962E0,-1.726179123E0,-7.282461166E0
6.610536742E1,-7.979743958E0,4.949626923E-1,1.004421234E0
6.620544111E1,3.896720886E0,4.303212166E0,8.533327103E0
6.630550798E1,-1.414391041E0,-4.808228493E0,2.246804237E-1
6.640557804E1,6.859045982E0,-1.039817810E1,-9.480934143E-1
6.650563924E1,9.297003746E-1,-7.842926979E-1,5.208802700E0
6.660571357E1,-2.072664499E0,4.495808601E0,7.973811626E0
6.670578040E1,-8.847166061E0,1.246308804E0,-1.026284218E0
6.680584517E1,-4.957364082E0,-2.997671366E0,-5.476305962E0
6.690590550E1,-6.988889694E0,8.885694504E0,1.700085640E1
6.701257336E1,1.606212854E0,9.951639175E-2,6.439304352E-1
6.711897716E1,5.693077087E0,-8.486859322E0,-1.997585297E0
6.722612138E1,2.779332638E0,-3.814828396E0,-3.630249500E0
6.732618798E1,-8.674517632E0,1.935723782E0,2.172769165E1
6.742625638E1,-7.891089916E0,7.907605171E-1,-3.793529034E0
6.752631778E1,-5.149765491E0,-3.186919451E0,-7.167005062E0
6.762638554E1,-1.168939114E1,6.039945602E0,1.047818470E1
6.772645351E1,1.411426425E0,7.573218346E-1,2.667287827E0
6.782652097E1,3.047037840E0,-9.474359512E0,-2.268300056E0
6.792659467E1,5.737247467E0,-4.246256828E0,-9.546419144E0
6.802666136E1,-2.960273027E0,2.414886951E0,1.853504944E1
6.812673393E1,-7.782311440E0,1.457875729E0,-3.281120062E0
6.822679616E1,-5.470115662E0,-3.057666302E0,-6.158904076E0
6.832686346E1,-9.508740425E0,1.407191277E0,7.193095684E0
6.842692559E1,3.501182079E0,2.481308937E0,4.060722351E0
6.852699075E1,1.716511846E0,-6.027318954E0,-2.747696161E0
6.862705852E1,6.144599438E0,-9.939105034E0,-3.116703987E0
6.872712598E1,-1.808176041E-1,3.326013565E0,3.863291264E0
6.882719318E1,-6.233410835E0,1.845279217E0,9.268275261E0
6.892725948E1,-8.392864227E0,-1.282722950E0,-6.911230087E0
6.902732938E1,-8.335901260E0,-3.327961445E0,-1.902648449E0
6.912739644E1,-1.742901087E0,7.364038467E0,1.639825058E1
6.922747001E1,-1.374295801E-1,-3.020106792E0,-4.772205353E-1
6.932754344E1,6.978427887E0,-1.143209839E1,2.291156292E0
6.942761040E1,1.061060190E0,-2.261157990E0,2.747757435E0
6.952767100E1,-8.527673721E0,6.277587414E0,1.799013138E1
6.962773423E1,-6.510723591E0,-2.270555496E-1,-4.459328651E0
6.972780469E1,-5.005095482E0,-3.617861986E0,-6.629339218E0
6.982787229E1,-1.207432079E1,5.539754391E0,7.377549648E0
6.992793329E1,1.374372363E0,2.008543491E0,-5.095276833E-1
7.002799976E1,3.694010258E0,-7.660306931E0,-2.018086910E0
7.012806649E1,7.160433769E0,-6.698198318E0,-5.810365200E0
7.022813392E1,-3.889003038E0,6.714554787E0,9.309689522E0
7.032820525E1,-7.735924721E0,2.042565823E0,-1.110238552E0
7.042827962E1,-5.769674301E0,-2.884724617E0,-6.454825878E0
7.052834678E1,-6.829455376E0,-1.599117279E0,-4.669790268E0
7.062841041E1,5.185206890E0,4.999698639E0,9.773509979E0
7.072846951E1,8.483489156E-1,-4.175147533E0,-7.732996941E-1
7.082854471E1,4.995962620E0,-9.082984924E0,-9.406228065E-1
7.092862210E1,2.248220682E0,8.121786118E-1,8.674708366E0
7.102868973E1,-7.825798988E0,5.435516357E0,1.284184647E1
7.112875430E1,-6.476893902E0,-1.134418488E0,-6.677994251E0
7.122881053E1,-6.903356552E0,-5.562825203E0,-7.826900482E0
7.132887836E1,-1.319357681E1,8.626731873E0,1.453974819E1
7.142893939E1,-2.863460302E0,2.330624104E0,3.462152481E0
7.152900639E1,6.087382793E0,-8.323461533E0,-3.192735434E0
7.162907259E1,6.682843208E0,-7.824898243E0,-1.102539253E1
7.172914242E1,-4.111440659E0,8.974699020E0,9.346460342E0
7.182920922E1,-8.031573296E0,6.970224380E-1,2.416167259E-1
7.192927688E1,-8.943094254E0,-5.893966675E0,-6.335493088E0
7.202934418E1,-5.377619267E0,-5.030632019E-1,-2.408137560E0
7.212941611E1,3.653634489E-1,3.343383789E0,1.318095779E1
7.222948347E1,1.195199490E0,-6.009868622E0,-4.370913506E-1
7.232954807E1,7.607636929E0,-1.091318512E1,-5.572743416E-1
7.242961450E1,8.847374916E-1,1.271270752E0,5.619963169E0
7.252968087E1,-7.707937717E0,4.753486156E0,9.070542336E0
7.262974743E1,-7.669383526E0,-1.971240997E0,-3.869817972E0
7.272981403E1,-7.282139778E0,-3.824360609E0,-9.722967148E0
7.282988149E1,-7.236446857E0,7.238412857E0,1.440631485E1
7.292994902E1,-2.420564413E0,-3.805397034E0,-9.835643768E-1
7.303001359E1,8.528803825E0,-9.710955620E0,2.142469883E0
7.313008422E1,1.235631466E0,-3.694607258E0,7.358850002E0
7.323015199E1,-3.909610271E0,6.403156757E0,1.272556877E1
7.333022075E1,-7.597392082E0,-5.658683777E-1,-2.300921440E0
7.343029808E1,-4.058250904E0,-4.811132431E0,-9.815500259E0
7.353037032E1,-1.164281845E1,8.611148834E0,8.778188705E0
7.363043455E1,7.152953744E-1,1.371608734E0,-3.325338364E-1
7.373048668E1,5.049567699E0,-8.473205566E0,-2.300298691E0
7.383055611E1,6.466120720E0,-6.591115952E0,-7.480000019E0
7.393062961E1,-2.629283667E0,7.212929726E0,1.663601112E1
7.403069834E1,-7.628127575E0,2.310510635E0,-2.704728127E0
7.413075837E1,-5.100944996E0,-4.372172356E0,-7.243278980E0
7.423082613E1,-9.226205826E0,-3.631873131E-1,-2.786415339E0
7.433089767E1,6.127292156E0,5.505203247E0,7.046605587E0
7.443096653E1,-7.273619175E-1,-5.460422516E0,-1.918066025E0
7.453102863E1,1.159768963E1,-1.095761490E1,-5.312849998E0
7.463109009E1,-2.269975662E0,4.587247849E0,6.955885887E-1
7.473115319E1,-6.610202312E0,5.422257900E0,2.620226383E0
7.483122122E1,-8.129529953E0,-3.643893003E0,-4.093415260E0
7.493128908E1,-6.791567802E0,-4.955517769E0,-1.019314098E1
7.503135825E1,-5.531560421E0,1.077964878E1,2.159901047E1
7.513142318E1,-2.141455889E0,-4.664358139E0,-2.857985258E0
7.523149138E1,6.459490776E0,-1.055250359E1,7.510366440E-1
7.533155801E1,3.624194860E0,-2.604438305E0,3.208111286E0
7.543162511E1,-5.020945549E0,8.027826309E0,1.771807671E1
7.553169991E1,-7.631443024E0,-9.076595306E-1,-5.867671967E0
7.563176757E1,-8.150962830E0,-4.666388512E0,-6.721003532E0
7.573183277E1,-1.104599094E1,6.890497684E0,7.677445889E0
7.583189127E1,1.680760980E0,2.981095314E0,2.693567276E0
7.593195813E1,2.968201637E0,-1.032669163E1,-1.149505615E0
7.603202686E1,5.432704449E0,-8.804013252E0,-9.181579590E0
7.613209372E1,3.618073463E-1,1.006298447E1,2.199065208E0
7.623216099E1,-5.345309734E0,4.035557270E0,1.185334682E0
7.633222959E1,-9.090602875E0,-4.613558769E0,-4.755357265E0
7.643230015E1,-7.656306744E0,-2.990859509E0,-2.945900917E0
7.653237015E1,6.118371010E0,7.628763199E0,9.255867004E0
7.663244048E1,2.125594378E0,-4.971442223E0,1.405448914E-1
7.673250648E1,7.845530510E0,-1.174074936E1,-1.322203636E0
7.683257491E1,1.616791725E0,-5.975599289E-1,9.251228333E0
7.693263827E1,-9.585241318E0,5.665640354E0,1.268334293E1
7.703271063E1,-9.124189377E0,-2.898585796E0,-6.595598221E0
7.713277363E1,-4.782864094E0,-4.606666565E0,-8.755057335E0
7.723295556E1,-1.012863827E1,1.080714226E1,2.075201416E1
7.733301722E1,3.318512738E-1,-2.370381355E0,-1.625237465E-1
7.743308432E1,5.036035061E0,-1.148314857E1,3.034278870E0
7.753315129E1,5.286589146E0,-2.769832611E0,-1.710351467E0
7.763322148E1,-5.473440170E0,7.798274994E0,2.028403282E1
7.773328712E1,-7.419307709E0,3.087854385E-2,-5.707448959E0
7.783335615E1,-4.852596760E0,-4.507445335E0,-9.097883224E0
7.793341885E1,-1.179876900E1,4.309441566E0,6.424434662E0
7.803348748E1,3.891816854E0,2.250989914E0,2.934290409E0
7.813356004E1,1.156204343E0,-6.263996124E0,1.301513672E0
7.823362718E1,8.655344009E0,-8.102128983E0,-3.999587297E0
7.833369434E1,-3.109714270E0,4.649019718E0,5.177493572E0
7.843375401E1,-4.201883793E0,4.154366493E0,1.599247456E0
7.853382117E1,-6.599412918E0,-2.996274233E0,-4.574234962E0
7.863388757E1,-5.732012749E0,-1.483224392E0,-1.853154898E0
7.873395376E1,-4.407184601E0,5.706547737E0,1.754491043E1
7.883402089E1,5.931922793E-1,-3.161740780E0,-1.051990986E0
7.893408949E1,5.294615269E0,-1.178945923E1,2.272369862E0
7.903415926E1,3.695567131E0,-3.074156046E0,1.066942692E0
7.913422639E1,-4.299489498E0,6.972777367E0,1.592078114E1
7.923429282E1,-9.880626678E0,-2.959361076E-1,-2.270550728E0
7.933435845E1,-9.440647125E0,-3.878842115E0,-3.997454643E0
7.943443698E1,-9.747535706E0,9.383049011E0,1.562855530E1
7.953450411E1,1.558698177E0,1.703414917E-1,2.389795780E0
7.963457114E1,5.947193623E0,-1.192694664E1,-3.264751434E-1
7.973462887E1,2.965613365E0,-5.914496422E0,-8.244515419E0
7.983469594E1,-4.541374207E0,9.255687714E0,6.353290081E0
7.993476420E1,-7.033555508E0,1.460947037E0,-2.382082939E-1
8.003482970E1,-7.412572861E0,-5.321919441E0,-3.490235329E0
8.013489700E1,-1.004679108E1,-1.828670502E-3,-1.802183628E0
8.023496323E1,2.767198086E0,5.829940796E0,7.410355568E0
8.033503000E1,1.885348409E-1,-4.946344376E0,-4.176664352E-1
8.043509700E1,6.593767643E0,-9.910936356E0,-1.818609238E-2
8.053516493E1,-2.421709061E0,1.112051010E0,1.878104210E-1
8.063523436E1,-6.607443810E0,5.916566849E0,1.020290375E1
8.073529959E1,-7.626117706E0,-3.429878950E0,-7.000606537E0
8.083536666E1,-8.630067825E0,-4.274514198E0,-7.629603386E0
8.093543142E1,-5.539797783E0,1.083773327E1,1.938534546E1
8.103550048E1,-1.566773653E-1,-2.746304512E0,-1.865752220E0
8.113556728E1,8.617290497E0,-1.061713123E1,2.716779232E0
8.123563444E1,3.329124212E0,-5.260516167E0,-2.200323105E0
8.133570131E1,-6.646884441E0,6.550208569E0,2.495602417E1
8.144390597E1,-6.286484718E0,1.196670532E-1,-5.166394234E0
8.154664167E1,-7.535127640E0,-6.670144081E0,-6.559724808E0
8.164937957E1,-8.436906815E0,1.202911568E1,2.163168526E1
8.175598353E1,-6.498479247E-1,-1.667016029E0,-2.811729431E0
8.185605020E1,7.923673153E0,-1.003692150E1,1.003018856E0
8.195611966E1,5.675457001E0,-4.691020966E0,-1.000293064E1
8.205618786E1,-5.587409973E0,9.960134506E0,2.438082504E1
8.215625526E1,-6.029606819E0,-2.416475773E0,-2.105689764E0
8.225631892E1,-6.895209312E0,-7.228466988E0,-6.164145470E0
8.235638662E1,-1.112422657E1,-3.605794907E-1,-2.800078869E0
8.245645868E1,2.545758486E0,4.569754601E0,5.394517899E0
8.255653218E1,2.356540442E0,-6.649211884E0,7.610073090E-1
8.265659848E1,8.008498192E0,-8.675607681E0,-4.864841938E0
8.275666687E1,3.862090111E-1,7.429226398E0,1.213273811E1
8.285672624E1,-7.640756130E0,2.579535961E0,3.564751625E0
8.295679403E1,-7.957851887E0,-5.290332794E0,-5.004882812E0
8.305685503E1,-8.542980194E0,-5.875648499E0,-5.965793610E0
8.315692316E1,3.168725967E-2,8.699827194E0,1.891040802E1
8.325699043E1,-2.866142273E0,-5.315360069E0,-2.471431017E0
8.335706212E1,8.435741425E0,-1.301474571E1,1.808176041E-1
8.345712849E1,2.875639915E0,-6.424012184E-1,5.289409161E0
8.355719699E1,-8.624435425E0,5.668670654E0,1.610589981E1
8.365726342E1,-7.516362190E0,-2.904739857E0,-6.715124130E0
8.375732981E1,-9.394283295E0,-6.695838928E0,-2.597425461E0
8.385739638E1,-1.060586643E1,1.040395260E1,2.605065918E1
8.395745948E1,-8.610295057E-1,-1.600104332E0,7.892794609E-1
8.405752847E1,5.157344341E0,-1.050424576E1,-1.696183681E0
8.415759574E1,6.177835941E0,-6.266396523E0,-3.126903296E0
8.425766373E1,-3.347937822E0,8.767466545E0,1.447494698E1
8.435772987E1,-7.761435509E0,-5.252323151E-1,2.925022125E0
8.445806476E1,-8.530359268E0,-6.084700584E0,-7.213388443E0
8.455813125E1,-1.167242432E1,1.160438538E0,2.931108475E0
8.465819725E1,1.199396968E0,3.928154945E0,6.111186028E0
8.475826408E1,6.711753607E-1,-8.382095337E0,2.700716496E0
8.485833305E1,9.648702621E0,-1.000102806E1,-4.821653366E-1
8.495840201E1,-3.658189774E-1,2.618195534E0,4.955415726E-1
8.505846924E1,-8.777313232E0,5.085938454E0,1.181896019E1
8.515853477E1,-7.671801567E0,-1.981269360E0,-6.698222637E0
8.525860127E1,-7.348217964E0,-3.823906898E0,-3.075644493E0
8.535866984E1,-9.969921112E0,9.248469353E0,2.180821419E1
8.545873704E1,-3.847958893E-2,-2.385173321E0,-1.143569708E0
8.555880503E1,6.684710026E0,-8.291766167E0,1.055810452E0
8.565886923E1,3.716560841E0,-6.195621014E0,-7.668429375E0
8.575894049E1,-6.151371956E0,8.990886688E0,9.190017700E0
8.585900683E1,-4.793217182E0,3.935706139E0,8.987841606E-1
8.595907552E1,-9.396499634E0,-3.629997015E0,-4.100465298E0
8.605913918E1,-9.073350906E0,-3.633423328E0,-4.627298832E0
8.615920658E1,1.419359446E0,6.434375763E0,1.986319733E1
8.625927388E1,1.591000795E0,-2.122686863E0,1.762947083E0
8.635934151E1,6.081633568E0,-9.769485474E0,-1.158002853E0
8.645940878E1,3.588596821E0,-3.223321438E0,-1.849095345E0
8.655947674E1,-6.256645203E0,5.969596863E0,1.720359802E1
8.665954134E1,-2.940330029E0,1.009390831E0,-5.502719879E0
8.675960693E1,-6.267815113E0,-4.267459869E0,-5.800172806E0
8.685967310E1,-1.028379536E1,4.357167244E0,5.183214664E0
8.695974619E1,2.016088009E0,2.646693707E0,5.528002262E0
8.705981442E1,2.196655989E0,-5.403840542E0,8.369507790E-1
8.715988156E1,8.185162544E0,-8.181797981E0,-4.250010967E0
8.725994406E1,1.020729542E-1,-5.767512321E-1,3.634291649E0
8.736001199E1,-3.676706076E0,6.080161095E0,3.235683441E-1
8.746007898E1,-6.213624954E0,-2.805308819E0,-7.851617813E0
8.756014612E1,-6.224447250E0,-3.349685907E0,-5.284799099E0
8.766021098E1,-6.352098465E0,7.056401730E0,2.149238396E1
8.776027798E1,-2.496106148E0,-8.154106140E-1,-1.186447620E0
8.786034504E1,6.882561684E0,-8.291390419E0,-1.753423214E0
8.796041418E1,6.841803551E0,-5.987572193E0,-8.557637215E0
8.806048151E1,-3.549592972E0,3.668163776E0,2.160782242E1
8.816055504E1,-4.690296650E0,8.301582336E-1,-5.092618942E0
8.826062377E1,-4.951496124E0,-3.703765631E0,-4.943460941E0
8.836069433E1,-8.347725868E0,1.746757984E0,6.574530125E0
8.846075543E1,2.940670967E0,1.416636467E0,3.370141983E0
8.856082090E1,1.743944168E0,-6.798289776E0,-2.461747646E0
8.866088349E1,8.683837891E0,-7.784147739E0,-5.160638332E0
8.876094906E1,7.003681660E-1,1.223637104E0,1.005092430E1
8.886101612E1,-7.439436436E0,2.154813766E0,2.939185143E0
8.896108438E1,-6.278923035E0,-4.797895908E0,-5.860987663E0
8.906115308E1,-5.192784309E0,-5.823904037E0,-7.378561497E0
8.916121988E1,-9.033251762E0,8.276417732E0,2.584507561E1
8.926128734E1,-2.948961258E0,-1.972777367E0,-6.013574600E-1
8.936135384E1,5.940248013E0,-1.087169743E1,6.394972801E-1
8.946142104E1,3.449610472E0,-4.836173058E-1,2.320675850E-1
8.956148787E1,-4.417037487E0,2.328844547E0,1.493126774E1
8.966155364E1,-8.310132980E0,-2.616158009E0,-3.807657003E0
8.976162070E1,-4.301115036E0,-5.337388992E0,-6.001646996E0
8.986168776E1,-1.163873863E1,1.120469856E1,2.381532669E1
8.996175666E1,-6.965807676E-1,-1.193706512E0,-8.274621964E-1
9.006182706E1,3.182809114E0,-9.714780807E0,-3.876478672E0
9.016189782E1,3.809067726E0,-4.092970371E0,-2.326318741E0
9.026196499E1,-4.879432678E0,3.160902977E0,1.271712780E1
9.036203505E1,-3.729395390E0,2.098914146E0,-6.479653835E0
9.046210715E1,-3.543164253E0,-1.187084675E0,-2.763199806E0
9.056218001E1,-6.443344116E0,1.841859818E-1,2.791433334E0
9.066224704E1,1.335390091E0,2.702071190E0,1.277559280E0
9.076230457E1,1.504451990E0,-4.185337067E0,-2.717702866E0
9.086236674E1,3.225102425E0,-7.429578304E0,-1.830327511E0
9.096242974E1,8.109445572E-1,2.111084461E0,-2.740962029E0
9.106249827E1,-3.073835373E-2,2.205108643E0,7.549913406E0
9.116256497E1,-7.608947277E0,-2.189027071E0,-4.327804565E0
9.126263233E1,-6.166467667E0,-2.397089720E0,-6.883495331E0
9.136269913E1,-7.130400658E0,1.133536720E1,1.747215080E1
9.146277216E1,-1.839353204E0,1.654166222E0,-7.094502449E-1
9.156283746E1,6.171451569E0,-1.030823994E1,1.263923645E-1
9.166290332E1,2.475833654E0,-5.421291828E0,7.274217606E-1
9.176306687E1,-3.497404575E0,7.830251217E0,1.526437759E1
9.186313383E1,-5.214787960E0,1.731359005E0,-4.897508621E0
9.196320316E1,-8.928615570E0,-3.954650402E0,-3.524851799E0
9.206327050E1,-1.533976173E1,5.213998318E0,6.199551105E0
9.216333779E1,5.711278915E0,4.091070652E0,4.562007904E0
9.226340476E1,2.661543608E0,-7.202804565E0,-2.535142422E0
9.236347222E1,5.339859009E0,-9.474543571E0,-9.293577194E0
9.246353982E1,-1.034508228E0,7.063788414E0,3.812632561E0
9.256360655E1,-7.263715267E0,5.152753830E0,8.961281776E-1
9.266367185E1,-6.006807327E0,-1.503166199E0,-5.589827538E0
9.276373772E1,-7.317377567E0,-2.471446991E-3,-2.710442543E0
9.286380918E1,-1.138786197E0,6.297338963E0,1.412062836E1
9.296387808E1,-1.794245005E0,-2.766160965E0,-2.898934364E0
9.306394698E1,6.511220932E0,-9.547300339E0,1.181481838E0
9.316400981E1,9.238846302E-1,-1.830611229E0,2.168606281E0
9.326407890E1,-6.985630989E0,4.863987446E0,1.103588676E1
9.336415070E1,-6.848836899E0,-2.426326752E0,-7.171304703E0
9.346421750E1,-8.422317505E0,-3.609500170E0,6.344962120E-1
9.356428306E1,-1.015054035E1,8.049812317E0,1.773996162E1
9.366434273E1,-1.412244081E0,6.106281281E-2,-2.141458273E0
9.376441379E1,6.065582752E0,-1.107551765E1,-1.486612797E0
9.386448856E1,4.813785553E0,-3.961617947E0,-7.672125816E0
9.396455712E1,3.887128830E-2,8.180801392E0,2.189881897E1
9.406462455E1,-7.466444969E0,3.148946762E-1,-2.956105471E0
9.416468375E1,-8.024464607E0,-6.349149704E0,-6.071176529E0
9.426475131E1,-1.066470528E1,3.882370949E0,5.935979843E0
9.436481451E1,2.864036560E0,3.478012085E0,5.245199203E-1
9.446488714E1,3.107890129E0,-8.014872551E0,-2.120124578E0
9.456495457E1,7.844189644E0,-9.624143600E0,-3.726064682E0
9.466501974E1,4.135775566E-1,6.654662609E0,9.314519882E0
9.476508134E1,-8.120181084E0,4.148328781E0,2.111694336E0
9.486515093E1,-6.827095032E0,-3.291836023E0,-7.237022877E0
9.496522040E1,-7.299899101E0,-4.564040184E0,-6.798489094E0
9.506528710E1,5.768735409E-1,9.766754150E0,2.121730423E1
9.516535143E1,1.685124636E-1,-5.959552765E0,-3.193287849E0
9.526541793E1,4.674843788E0,-1.578434467E1,3.436648846E0
9.536548556E1,2.174281359E0,-1.093064308E0,5.548119545E0
9.546555855E1,-4.752056122E0,8.914453506E0,2.023245621E1
9.556562602E1,-9.319154739E0,-3.659885883E0,-3.846714973E0
9.566569575E1,-8.545845985E0,-5.460725784E0,-5.919082165E0
9.576576215E1,-1.389250088E1,1.436378002E1,2.423985291E1
9.586582871E1,-2.421365738E0,-1.322282314E0,-3.875818253E-1
9.597582708E1,9.063782692E0,-1.245763779E1,1.115759373E0
9.607589757E1,1.768522263E0,-5.646825790E0,-6.139916420E0
9.617596527E1,-3.067106962E0,1.082403374E1,1.906269073E1
9.627609990E1,-8.170396805E0,-9.319872856E-1,-1.732071638E0
9.637616473E1,-7.143965244E0,-5.396215439E0,-5.430038929E0
9.647623166E1,-1.434572029E1,7.745109081E0,9.539732933E0
9.657629799E1,3.553128242E0,2.653124809E0,-1.157530069E0
9.667636276E1,8.321667314E-1,-9.015987396E0,-6.200742722E-1
9.677643429E1,8.122259140E0,-9.456709862E0,-6.085319519E0
9.687650149E1,-3.214661121E0,5.115165710E0,7.654022694E0
9.697657245E1,-4.730056286E0,5.906259537E0,4.496980667E0
9.707663645E1,-9.042889595E0,-3.243717909E0,-4.567005157E0
9.717670378E1,-1.080645370E1,-4.603605270E0,-6.998032570E0
9.727676911E1,-1.256041622E1,8.849728584E0,2.312159348E1
9.737683511E1,4.127303362E-1,-3.490753651E0,-8.831005096E-1
9.747690230E1,6.908813477E0,-1.039278030E1,1.047196865E0
9.757696934E1,2.134735346E0,-5.176342964E0,-1.696778297E0
9.767703910E1,-3.629273415E0,9.468981743E0,1.745990944E1
9.777710550E1,-9.112056732E0,-7.632865906E-1,-3.297403336E0
9.787717356E1,-6.345242977E0,-4.234781265E0,-4.703013897E0
9.797723816E1,-1.267341614E1,7.575844765E0,1.015774345E1
9.807731342E1,2.629466772E0,2.038726807E0,-5.171029568E-1
9.817737922E1,1.455405951E0,-9.012962341E0,-7.363929749E-1
9.827744661E1,7.535468102E0,-9.390900612E0,-6.220496178E0
9.837750655E1,-1.720930576E0,6.476306915E0,6.352756023E0
9.847757361E1,-5.250194073E0,4.373280048E0,2.743300438E0
9.857764654E1,-9.942218781E0,-4.104075909E0,-4.600935459E0
9.867771151E1,-9.039007187E0,-1.825646400E0,-7.440317154E0
9.877777924E1,4.475129604E0,8.265737534E0,1.423067093E1
9.887784197E1,-3.405415297E0,-6.627170563E0,5.289792538E0
9.897800662E1,7.103229523E0,-1.066417789E1,-6.531858444E-2
9.907807359E1,8.583025932E-1,-9.313097000E-1,-4.860877991E-1
9.917813906E1,-5.237046719E0,6.930452824E0,1.359883308E1
9.927820715E1,-7.340479851E0,-2.941691875E0,-7.737000465E0
9.937827439E1,-7.777169704E0,-4.422261238E0,-6.204284668E0
9.947834198E1,-7.744703770E0,1.256678581E1,2.773689079E1
9.957840998E1,-2.308322191E0,-1.932292938E0,-9.577376842E-1
9.967848101E1,5.418962955E0,-1.167070198E1,1.648527622E0
9.977854781E1,4.596589088E0,-5.811581135E0,-6.434082985E0
9.987861324E1,-1.449459791E0,1.100568867E1,1.903358078E1
9.997867644E1,-7.182685375E0,9.342193604E-3,-3.087608576E0
1.000787459E2,-9.290349960E0,-4.886156559E0,-5.187416553E0
1.001788133E2,-9.300293922E0,3.675445557E0,6.794467926E0
1.002788804E2,1.441874981E0,2.368462563E0,8.829526901E0
1.003789448E2,1.444980025E0,-8.590922356E0,6.138433933E0
1.004790134E2,4.872422695E0,-1.000514984E1,-8.631398201E0
1.005790806E2,-5.315155983E-1,3.721384525E0,9.679494858E0
1.006791456E2,-3.767215490E0,4.408648491E0,4.042533875E0
1.007792131E2,-8.715391159E0,-3.899616957E0,-3.510486603E0
1.008792817E2,-1.137879467E1,-8.031592369E-1,-3.341616154E0
1.009793508E2,7.602202415E0,6.933865547E0,1.112705517E1
1.010794157E2,-3.227910280E0,-7.125894070E0,1.552834988E0
1.011794811E2,8.595347404E0,-1.267259598E1,3.438668251E-1
1.012795495E2,1.854208469E0,-4.436397552E-2,7.962968349E0
1.013796168E2,-4.330489635E0,8.232973099E0,1.523475266E1
1.014796846E2,-1.050042057E1,-2.941206217E0,-7.222018719E0
1.015797574E2,-7.840774059E0,-4.621674538E0,-5.940463543E0
1.016798234E2,-1.895245552E1,1.257383156E1,2.673987198E1
1.017798897E2,3.466226459E-1,-3.452391148E0,-2.456769943E0
1.018799505E2,2.991665840E0,-1.231571388E1,2.097918034E0
1.019800194E2,3.062151670E0,-8.229061127E0,-3.115497112E0
1.020800867E2,1.280651093E-1,1.083487511E1,2.402407837E1
1.021801590E2,-4.726943016E0,2.040778160E0,-5.569135666E0
1.022802364E2,-1.123663998E1,-5.620471954E0,-5.885192394E0
1.023803038E2,-1.270104027E1,6.645420074E0,1.402291489E1
1.024803820E2,5.674323082E0,3.521280289E0,-1.161723852E0
1.025804410E2,6.009460449E0,-1.552403831E1,4.792784691E0
1.026805074E2,5.124175549E0,-7.837322235E0,-9.591735840E0
1.027805652E2,-2.870832443E0,1.094911766E1,1.230329704E1
1.028806291E2,-6.941813946E0,2.307436466E0,4.241123199E-1
1.029806966E2,-8.696587563E0,-4.454401970E0,-3.937838078E0
1.030807567E2,-1.221524048E1,-2.056099415E0,2.375302315E0
1.031808244E2,5.096834183E0,8.047397614E0,1.511816406E1
1.032808296E2,-4.898345470E-2,-5.121934891E0,1.036279202E-1
1.033808967E2,4.951988697E0,-1.465101242E1,-1.246826172E0
1.034809636E2,1.425376415E0,-1.590631008E0,6.611907482E0
1.035810936E2,-1.692118168E0,8.560599327E0,1.035891247E1
1.036811590E2,-8.961898804E0,-3.910326719E0,-4.822524071E0
1.037812260E2,-1.018485355E1,-4.700968266E0,-5.452544212E0
1.038812925E2,-1.539192104E1,1.237841606E1,2.363491631E1
1.039813640E2,-1.084300280E0,-1.814822197E0,2.653160810E0
1.040814373E2,5.561044693E0,-1.495325089E1,1.406292439E0
1.041815041E2,4.126692772E0,-5.652606010E0,-7.698114872E0
1.042815736E2,-4.355538368E0,1.244485569E1,2.693022919E1
1.043816347E2,-8.120326042E0,-2.173690796E-1,-3.122356892E0
1.044817016E2,-9.103591919E0,-7.039862633E0,-2.988262892E0
1.045817637E2,-1.129204178E1,2.269659042E0,-1.562526703E0
1.046818355E2,8.097136021E-1,4.292185783E0,6.303298473E0
1.047819093E2,4.641140699E-1,-1.028136444E1,1.813464165E-1
1.048819761E2,7.899743080E0,-1.136596584E1,-6.012023926E0
1.049820439E2,-3.466818333E0,9.430870056E0,1.749777794E1
1.050821049E2,-6.698867798E0,6.529025555E0,3.805123329E0
1.051821715E2,-1.092447090E1,-5.065562248E0,-3.955484390E0
1.052822438E2,-1.029302025E1,-4.607393265E0,-8.290768623E0
1.053823104E2,-4.127365112E0,1.249375248E1,2.274954224E1
1.054823780E2,-3.993798971E0,-5.341312408E0,-4.097020626E-1
1.055824386E2,5.811084270E0,-1.296325111E1,2.536655903E0
1.056825097E2,4.446649551E0,-2.416936874E0,-1.846991539E0
1.057825773E2,-7.774792194E0,7.871467113E0,2.137635040E1
1.058826495E2,-6.935617447E0,-1.851632118E0,-6.750311852E0
1.059827183E2,-8.286676407E0,-4.227836132E0,-4.992901325E0
1.060827853E2,-1.532764721E1,1.090221500E1,1.857770920E1
1.061828441E2,-1.512402058E0,-8.758058548E-1,1.820454121E0
1.062829886E2,5.191897869E0,-1.040209866E1,-1.779509544E0
1.063830559E2,5.695781708E0,-9.031262398E0,-9.991053581E0
1.064831258E2,-3.705969810E0,1.021808243E1,8.170005798E0
1.065831966E2,-8.460124016E0,2.524553776E0,3.739167213E0
1.066832616E2,-6.688382149E0,-5.839840889E0,-5.992775917E0
1.067833313E2,-9.687240601E0,-2.842563152E0,-6.292715549E0
1.068833944E2,-5.100795269E0,7.881910324E0,1.867090225E1
1.069834641E2,-4.488069057E0,-4.845344543E0,8.353796005E-1
1.070835256E2,5.284428596E0,-1.084369278E1,1.953268051E0
1.071836016E2,6.936693192E-2,-2.449815273E0,-6.573336124E0
1.072836685E2,-6.624258995E0,1.059823036E1,2.082529831E1
1.073837362E2,-8.890531540E0,-1.905377865E0,-6.767848492E0
1.074837949E2,-9.276491165E0,-4.075502872E0,-5.302677155E0
1.075838619E2,-1.550192356E1,1.294259930E1,2.256397820E1
1.076839263E2,-2.159869671E0,-3.300723553E0,-1.177052498E0
1.077839935E2,7.725406170E0,-1.343410873E1,3.882521629E0
1.078840604E2,3.060586452E0,-5.224501610E0,-6.564108849E0
1.079841298E2,-3.139044046E0,1.298051643E1,1.570834160E1
1.080841967E2,-7.983114243E0,-1.992568970E-1,-2.703785419E0
1.081842671E2,-8.040271759E0,-5.579556465E0,-5.111106873E0
1.082843346E2,-1.555875492E1,6.255350113E0,8.514497757E0
1.083844015E2,4.595780373E0,2.211908340E0,-1.683281541E0
1.084844654E2,9.596114159E-1,-1.067267227E1,-2.125079632E0
1.085845341E2,6.208956718E0,-1.062006283E1,-5.871650696E0
1.086845994E2,-1.226284981E0,1.048886871E1,4.024795532E0
1.087846659E2,-8.016786575E0,3.211346149E0,3.720722198E0
1.088847305E2,-8.837327957E0,-4.432721138E0,-6.659834862E0
1.089847997E2,-6.601101398E0,-1.292763710E0,-5.349473476E0
1.090848741E2,5.500665665E0,8.881464958E0,1.385291481E1
1.091849422E2,-1.546657324E0,-6.974647999E0,-1.018331051E0
1.092850091E2,7.131402016E0,-1.397940826E1,2.020737648E0
1.093850838E2,-4.292809963E-1,-4.301052094E-1,7.047066689E0
1.094851513E2,-6.020274162E0,6.438434601E0,2.125662804E1
1.095852188E2,-8.595132828E0,-1.768370152E0,-5.887838364E0
1.096852697E2,-1.105015469E1,-6.601611614E0,-5.208671093E0
1.097853357E2,-1.162499523E1,1.279688454E1,2.589559937E1
1.098854069E2,2.622000217E0,-2.112200260E0,-1.458507061E0
1.099854763E2,6.074584007E0,-1.371372795E1,-5.573372841E-1
1.100855460E2,3.827362299E0,-5.870453835E0,-6.774631500E0
1.101856092E2,-1.206173897E-1,1.215646648E1,2.952459908E1
1.102856759E2,-9.299894333E0,-1.174863815E0,-4.287806511E0
1.103857412E2,-9.956115723E0,-4.667835236E0,-5.337792873E0
1.104857413E2,-1.265094566E1,6.993247986E0,1.228770733E1
1.105858241E2,5.061048031E0,1.972287178E0,2.094402075E0
1.106858899E2,5.158946037E0,-9.968917847E0,-2.185664177E-1
1.107860237E2,7.026211262E0,-1.065350246E1,-6.606192589E0
1.108860775E2,-3.399763823E0,7.959157467E0,7.257437229E0
1.109861456E2,-5.699876785E0,3.275254726E0,5.278734684E0
1.110862131E2,-8.554059982E0,-4.873003006E0,-5.055048466E0
1.111862783E2,-1.197220230E1,-3.612278938E0,-7.537449837E0
1.112863474E2,7.309619904E0,1.068755531E1,1.446171093E1
1.113864145E2,-1.228567123E0,-8.591169357E0,2.909620762E0
1.114864824E2,7.839489937E0,-1.266351128E1,-4.103311062E0
1.115865471E2,1.517208576E0,2.358164310E0,7.998865128E0
1.116866164E2,-6.030763149E0,7.564596653E0,1.230572510E1
1.117866857E2,-8.014016151E0,-3.605057955E0,-2.455938101E0
1.118867537E2,-1.197129917E1,-5.303365707E0,-3.831580877E0
1.119868183E2,-8.113378525E0,1.047712994E1,2.866241074E1
1.120868897E2,4.508221149E-2,-8.993091583E-1,-1.946298718E0
1.121869573E2,7.483603477E0,-1.356040955E1,8.368182182E-1
1.122870337E2,3.203312159E0,-6.467862606E0,-5.875006676E0
1.123870936E2,-5.166454315E-1,1.236854935E1,2.851187134E1
1.124871598E2,-8.846835136E0,2.746944427E-1,-2.345493078E0
1.125872180E2,-1.023567867E1,-5.802988052E0,-3.822979450E0
1.126872832E2,-1.103875732E1,5.846283913E0,6.845253944E0
1.127873577E2,7.506283760E0,3.337636948E0,2.708698273E0
1.128874244E2,2.682006121E0,-1.131474018E1,2.693249941E0
1.129874936E2,7.142513275E0,-1.209370613E1,-6.398683548E0
1.130875534E2,-1.931731224E0,6.856579781E0,8.751462936E0
1.131876204E2,-5.368786335E0,7.127942085E0,5.194201469E0
1.132876932E2,-1.014027405E1,-5.136490345E0,-3.115039349E0
1.133877636E2,-1.017848301E1,-4.878896713E0,-5.796008110E0
1.134975504E2,7.466488361E0,8.448917389E0,1.846149063E1
1.135976113E2,-9.190497398E-1,-8.808979988E0,2.549293280E0
1.136976729E2,7.512178898E0,-1.436903286E1,-5.746572971E0
1.137977392E2,-3.833246231E-2,5.230517387E-1,1.273669434E1
1.138978178E2,-4.026926994E0,8.457644463E0,1.114590549E1
1.139978898E2,-1.023689938E1,-4.415165424E0,-4.391177654E0
1.140979574E2,-1.060927296E1,-5.964622021E0,-6.601632118E0
1.141980132E2,-8.757987976E0,1.429832172E1,2.989633560E1
1.142980777E2,-1.903145552E0,-4.240056515E0,-1.524082184E0
1.143981532E2,9.244116783E0,-1.464449787E1,-3.726775646E-1
1.144982204E2,2.008980751E0,-5.712696075E0,1.936287880E-1
1.145982892E2,-4.867865562E0,1.067652512E1,2.560356140E1
1.146983525E2,-1.011425591E1,-2.003848076E0,-2.505599499E0
1.147984203E2,-9.080805779E0,-6.338943481E0,-3.486110210E0
1.148984876E2,-1.154095459E1,9.202469826E0,1.356738567E1
1.149985507E2,1.228769064E0,1.426419258E0,4.149513245E0
1.150986170E2,4.248099804E0,-1.287347603E1,2.779753208E-1
1.151986827E2,5.551189423E0,-8.554767609E0,-6.182824135E0
1.152987533E2,-3.106739283E0,9.277091980E0,1.356875801E1
1.153988207E2,-6.480410099E0,6.401224136E-1,2.454570293E0
1.154988874E2,-9.297260284E0,-5.495983124E0,-3.083762407E0
1.155989570E2,-1.214900970E1,-2.741352081E0,-5.357054710E0
1.156990216E2,7.758193970E0,8.353839874E0,1.378227615E1
1.157990882E2,-6.352014542E-1,-8.613457680E0,5.033667564E0
1.158991535E2,8.281738281E0,-1.404649448E1,-3.596222878E0
1.159992231E2,-2.327437401E0,6.056442261E-1,6.347111225E0
1.160992909E2,-8.121460915E0,7.178679466E0,1.293710899E1
1.161993542E2,-9.214803696E0,-4.968690395E0,-6.373297691E0
1.162994213E2,-9.285861015E0,-6.145078659E0,-9.705924034E0
1.163994929E2,-8.228882790E0,1.691135406E1,2.738005066E1
1.164995587E2,-3.915621042E0,-5.292688370E0,1.361304045E0
1.165996260E2,9.782166481E0,-1.530366898E1,7.981314659E-1
1.166996924E2,1.616964817E0,-4.949120998E0,6.940660477E-1
1.167997601E2,-2.146712303E0,1.152074814E1,2.563973618E1
1.168998272E2,-9.021295547E0,-3.432579041E-1,-1.722604990E0
1.169998905E2,-8.322168350E0,-5.794909000E0,-6.154883385E0
1.170999578E2,-1.377744198E1,8.081981659E0,1.379491615E1
1.172000247E2,-6.265075803E-1,1.120782852E0,2.540950060E0
1.173000919E2,2.431430817E0,-1.052737713E1,2.829837799E-1
1.174001673E2,5.760350227E0,-1.008173752E1,-1.056507778E1
1.175002344E2,-9.401636124E-1,8.778270721E0,1.355872917E1
1.176003031E2,-7.924683094E0,1.056805611E0,-6.754302979E-2
1.177003597E2,-1.050476360E1,-3.772119999E0,-5.363255501E0
1.178004267E2,-6.728741169E0,3.394832611E-1,5.162120819E0
1.179004959E2,3.623929977E0,2.711659431E0,5.265071392E0
1.180005651E2,-2.831610143E-1,-6.184641361E0,-2.385786772E0
1.181006323E2,2.615698338E0,-1.016693687E1,1.565942287E0
1.182006978E2,1.319674969E0,3.517054558E0,1.247947216E0
1.183007660E2,-2.297501564E0,3.267708778E0,7.778452873E0
1.184008421E2,-5.904337883E0,-2.049966574E0,-2.966651917E0
1.185009072E2,-5.440151691E0,-3.205252171E0,-5.281281471E0
1.186009734E2,-5.422955155E-1,6.630763531E0,8.886196136E0
1.187010347E2,-7.585917115E-1,1.014449120E0,-1.304070473E0
1.188011016E2,3.248241425E0,-8.027553558E0,-1.031454563E0
1.189011744E2,5.167197704E0,-5.386825085E0,3.939256668E-1
1.190012432E2,-6.857108116E0,4.831341743E0,1.912826347E1
1.191013106E2,-6.801060677E0,7.823567390E-1,-7.503453255E0
1.192013721E2,-8.051555634E0,-4.911449432E0,-2.650950432E0
1.193014354E2,-1.212938786E1,6.188221931E0,3.441187382E0
1.194015102E2,6.020423412E0,7.197535515E0,2.309143543E0
1.195015841E2,1.706067324E0,-1.120618248E1,2.959961891E0
1.196016520E2,4.166779041E0,-1.386502266E1,-1.125853539E1
1.197017143E2,1.729175091E0,1.037187958E1,1.043829918E0
1.198017748E2,-7.755456924E0,7.041073799E0,7.926045895E0
1.199018399E2,-9.137644768E0,-5.358273029E0,-7.676065445E0
1.200019044E2,-1.064270973E1,-3.545722246E0,-6.466681004E0
1.201019738E2,-4.569437027E0,1.494780350E1,3.185079575E1
1.202020477E2,-5.301478386E0,-7.705274105E0,-5.585643768E0
1.203021146E2,6.818212032E0,-1.856369209E1,5.649757385E-2
1.204021793E2,4.013632298E0,-9.785313606E-1,2.624015808E-1
1.205022451E2,-4.444782734E0,1.204159164E1,2.311066818E1
1.206023131E2,-8.919933319E0,5.768017769E-1,-6.238777161E0
1.207023788E2,-1.014626503E1,-6.077534676E0,-5.182300091E0
1.208024158E2,-1.368854904E1,8.726366043E0,9.144942284E0
1.209024853E2,1.436653137E0,2.868610382E0,-2.048865795E0
1.210025540E2,-4.176847935E-1,-1.098307037E1,-2.041872978E0
1.211026211E2,8.244585037E0,-8.912820816E0,-1.139356041E1
1.212026850E2,-3.883223534E-1,1.144106293E1,1.831715012E1
1.213027518E2,-1.380932045E1,2.297275066E0,6.554153919E0
1.214028273E2,-7.791738510E0,-6.920715809E0,-8.653907776E0
1.215028944E2,-1.065671158E1,-4.251259804E0,-4.175960064E0
1.216029617E2,-3.499622822E0,7.687034607E0,2.422101021E1
1.217030247E2,-1.675568104E0,-5.120635033E0,-3.628732204E0
1.218030915E2,4.901811123E0,-1.198076439E1,-2.759958267E0
1.219031583E2,3.239140511E0,6.853532791E-1,7.692656040E0
1.220032215E2,-7.514062881E0,7.369631290E0,1.431326675E1
1.221032909E2,-1.081285000E1,-2.616509914E0,-6.477802753E0
1.222033585E2,-7.786108971E0,-4.608353615E0,-7.355798721E0
1.223034253E2,-1.506773281E1,1.151191044E1,3.161277580E1
1.224034905E2,-5.210066319E0,-5.221840858E0,-1.156785011E0
1.225035576E2,5.185994148E0,-1.289109230E1,-1.158417702E0
1.226036315E2,3.938344002E0,-4.230473995E0,-6.125488758E0
1.227036960E2,1.715605736E0,1.194632530E1,2.710881424E1
1.228037633E2,-1.123277855E1,-1.807723522E0,-9.948031902E-1
1.229038237E2,-1.091532993E1,-6.492219925E0,-8.152476549E-1
1.230038933E2,-1.430254459E1,3.465551376E0,5.087081432E0
1.231039654E2,2.373513699E0,2.463783264E0,3.786256075E0
1.232040329E2,1.443073630E0,-8.814193726E0,-2.254181385E0
1.233041008E2,7.055324078E0,-9.716398239E0,-5.160900593E0
1.234041627E2,-2.076712608E0,7.378293514E0,1.787652206E1
1.235042299E2,-8.571540833E0,4.092128754E0,2.610160828E0
1.236042963E2,-9.795683861E0,-6.157739162E0,-7.086229324E0
1.237043622E2,-6.813038826E0,-3.836265087E0,-5.682840347E0
1.238044294E2,-2.475485086E0,8.523181915E0,2.199723816E1
1.239044965E2,-3.297526121E0,-6.304965973E0,-1.491319180E0
1.240045654E2,6.987675190E0,-1.234203053E1,-2.648162842E-1
1.241046325E2,4.176493645E0,-1.168630600E0,4.600091457E0
1.242047004E2,-6.130437851E0,5.912816525E0,2.186534119E1
1.243047682E2,-9.919303894E0,-2.414252758E0,-5.996731758E0
1.244048360E2,-8.046358109E0,-6.968430996E0,-6.124901772E0
1.245049024E2,-9.249030113E0,8.696185112E0,1.851484871E1
1.246049689E2,2.496303320E0,9.096221924E-1,2.667639256E-1
1.247050364E2,4.844954491E0,-1.301434517E1,-1.379077196E0
1.248051039E2,9.365290642E0,-9.332368851E0,-1.198518753E1
1.249051753E2,9.262480736E-1,1.137941837E1,2.272541428E1
1.250052411E2,-9.647167206E0,-4.398303032E-1,2.335883141E0
1.251053073E2,-6.981956482E0,-5.879942894E0,-6.796552658E0
1.252053757E2,-7.456836224E0,-3.070161343E0,-3.513784885E0
1.253054426E2,3.474317789E-1,6.775359154E0,2.082600784E1
1.254055098E2,3.651243448E-1,-7.756998062E0,1.992946148E0
1.255055704E2,7.267128944E0,-1.406194878E1,-8.522071838E-1
1.256056379E2,5.402414799E-1,-3.110680103E0,8.400848389E0
1.257057031E2,-5.820303917E0,7.973650932E0,2.144294548E1
1.258057705E2,-7.976153374E0,-3.226869583E0,-5.916912079E0
1.259058377E2,-9.327445984E0,-6.163757324E0,-6.166209221E0
1.260059068E2,-1.650881004E1,1.140571308E1,2.452673912E1
1.261059739E2,5.481640100E-1,-1.962921143E0,-1.606092453E0
1.262060556E2,4.782201767E0,-1.302469444E1,2.181155205E0
1.263061225E2,5.165366173E0,-7.039361954E0,-1.026559162E1
1.264061952E2,-1.221533775E0,1.165393353E1,2.195251846E1
1.265062475E2,-1.027896881E1,1.070431232E0,-3.317108154E-1
1.266063220E2,-8.151123047E0,-6.157339096E0,-4.752734661E0
1.267063822E2,-1.290908146E1,-2.372658730E0,-6.073311806E0
1.268064541E2,7.699409008E0,5.170449257E0,8.644155502E0
1.269065135E2,-1.846583128E0,-8.173609734E0,7.867751122E-1
1.270065834E2,6.413390160E0,-1.058671570E1,-4.370713234E0
1.271066524E2,1.693113804E0,8.672885895E-1,8.874716759E0
1.272067198E2,-1.001452065E1,5.878495216E0,1.341880989E1
1.273067859E2,-9.673830986E0,-4.218471050E0,-8.111780167E0
1.274068540E2,-7.444764137E0,-4.782403946E0,-7.558526993E0
1.275069218E2,-1.214840794E1,1.136104488E1,2.795538330E1
1.276069892E2,-3.592660904E0,-2.694258213E0,-8.526875973E-1
1.277070554E2,6.611276150E0,-1.309561825E1,3.423433304E-1
1.278071226E2,4.929952145E0,-6.356837273E0,-7.106266975E0
1.279071897E2,-2.706537247E-1,1.160534286E1,2.183135986E1
1.280077278E2,-9.683132172E0,4.659337997E-1,2.677721024E0
1.281077962E2,-8.159586906E0,-7.009368420E0,-6.988641262E0
1.282078637E2,-8.848608017E0,2.992401123E-1,-5.420825005E0
1.283079308E2,3.948444605E0,2.982995987E0,7.137414932E0
1.284079966E2,9.358888865E-1,-9.016033173E0,-1.076964855E0
1.285080639E2,1.237480831E1,-1.003663445E1,-7.453291893E0
1.286081325E2,-2.486920357E-1,6.666128635E0,1.731437683E1
1.287081970E2,-8.805958748E0,2.465699196E0,1.076225281E0
1.288082629E2,-4.678666592E0,-5.634247780E0,-8.154782295E0
1.289083285E2,-8.780301094E0,-8.555977821E0,-6.095154762E0
1.290083983E2,-8.288764000E0,1.365520191E1,2.753398132E1
1.291084664E2,-2.407519341E0,-3.881619930E0,9.052987099E-1
1.292085339E2,9.424853325E0,-1.471138191E1,-1.886170864E0
1.293086011E2,3.848464012E0,-1.942161083E0,2.218544006E0
1.294086707E2,-5.208084583E0,9.566946030E0,1.981500244E1
1.295087419E2,-8.270775795E0,-4.301665306E0,-6.087360859E0
1.296088089E2,-8.003181458E0,-8.131382942E0,-5.550942898E0
1.297088710E2,-1.453800201E1,1.055383492E1,1.378683853E1
1.298089385E2,3.019351006E0,5.611734390E-1,1.249972343E0
1.299090053E2,6.790966988E0,-1.157110596E1,6.529183388E-1
1.300090742E2,8.298022270E0,-7.722429752E0,-7.545259476E0
1.301091418E2,-5.830593586E0,9.423645020E0,2.058566666E1
1.302092139E2,-6.989724636E0,1.894874096E0,-1.466894627E0
1.303092824E2,-7.746589661E0,-6.474295139E0,-3.828990221E0
1.304093449E2,-1.074282742E1,-3.091714859E0,-6.224684715E0
1.305094129E2,4.704260826E0,6.755971909E0,1.638841438E1
1.306094790E2,-1.163204193E0,-7.912612915E0,5.757384300E-1
1.307095451E2,6.056165695E0,-1.422777176E1,-2.379106283E0
1.308096104E2,1.054297447E0,1.904232979E0,8.775718689E0
1.309096796E2,-6.571321964E0,7.455736637E0,1.257414055E1
1.310097476E2,-8.262931824E0,-4.334377766E0,-7.677568913E0
1.311098110E2,-8.568355560E0,-7.111063957E0,-6.069218159E0
1.312098763E2,-1.630487442E1,1.444846249E1,2.621103287E1
1.313099432E2,-3.317075491E0,-1.084276199E0,-2.850317955E0
1.314100104E2,2.536481857E0,-1.124117756E1,-1.664010525E0
1.315100774E2,6.546522141E0,-5.440279484E0,-8.589580536E0
1.316101445E2,-7.012485981E0,7.467375278E0,1.714347839E1
1.317102154E2,-7.419812202E0,2.657856941E0,-7.984401226E0
1.318102840E2,-1.155968285E1,-5.398918152E0,-3.057183027E0
1.319103574E2,-9.705268860E0,8.219037056E-1,4.441862106E-1
1.320104254E2,4.022950649E0,2.985758781E0,6.207012653E0
1.321104937E2,2.249665976E0,-7.898079395E0,7.091908455E-1
1.322105553E2,8.774637222E0,-1.194474411E1,-3.547975063E0
1.323205570E2,-9.116754532E-1,9.450246811E0,1.711277008E1
1.324206219E2,-6.561316967E0,2.847376823E0,9.351296425E-1
1.325207559E2,-9.948408127E0,-4.937244415E0,-5.073824883E0
1.326208234E2,-6.057068348E0,-4.216907978E0,-7.557933807E0
1.327208886E2,-9.053169250E0,1.113841343E1,2.879530716E1
1.328209549E2,-1.833316684E-2,-5.069461823E0,-1.447263002E0
1.329210263E2,6.238362312E0,-1.388624096E1,-2.563757658E0
1.330210999E2,1.639812946E0,-5.587341785E0,-2.410720825E0
1.331211672E2,-1.530784607E0,1.035114288E1,2.528754044E1
1.332212397E2,-7.136809826E0,-2.539959908E0,-8.411158562E0
1.333213113E2,-9.701299667E0,-7.370882988E0,-4.541602612E0
1.334213791E2,-1.246747875E1,6.081784248E0,8.380241394E0
1.335214390E2,2.515731335E0,3.634537697E0,5.012459755E0
1.336214965E2,1.126346707E0,-9.211467743E0,-9.062139988E-1
1.337215622E2,6.196613312E0,-1.058122063E1,-8.419025421E0
1.338216282E2,-2.721868038E0,8.230571747E0,1.133720207E1
1.339216983E2,-9.087557793E0,4.537697792E0,8.061739922E0
1.340217665E2,-9.084331512E0,-4.149172783E0,-3.718499422E0
1.341218390E2,-9.760210037E0,-4.877067089E0,-5.431963921E0
1.342219039E2,-7.119791985E0,1.056097794E1,2.728958321E1
1.343219705E2,-2.701018095E0,-5.154347420E0,-2.362254858E0
1.344220314E2,5.773117065E0,-1.307942963E1,-1.496499062E0
1.345220989E2,2.795178413E0,-1.155653954E0,1.812227726E0
1.346221665E2,-4.246940613E0,1.101749992E1,2.581897354E1
1.347222316E2,-1.033716393E1,-2.326670170E0,-4.311903477E0
1.348223022E2,-9.620911598E0,-7.921631813E0,-4.742095947E0
1.349223697E2,-1.206736660E1,7.200252533E0,1.149590302E1
1.350224383E2,-9.791730046E-1,3.118228912E-2,2.635422707E0
1.351225013E2,3.395635605E0,-8.627419472E0,-4.424471378E0
1.352225677E2,9.252656937E0,-8.170890808E0,-5.761976242E-1
1.353228184E2,-2.536882639E0,7.091650009E0,1.266185379E1
1.354228859E2,-8.519673347E0,3.270207882E0,6.033736229E0
1.355229538E2,-8.693522453E0,-5.360893250E0,-6.247418404E0
1.356230201E2,-9.282337189E0,-6.394112110E0,-7.090193748E0
1.357230921E2,-1.078209400E1,1.178021717E1,2.315943527E1
1.358231584E2,-1.868591785E0,-4.843529224E0,-2.445988655E-1
1.359232269E2,9.671045303E0,-1.273895454E1,2.828220844E0
1.360232891E2,2.544512749E-1,-2.140743017E0,-2.320001125E0
1.361233574E2,-8.798247337E0,6.597811222E0,2.259661484E1
1.362234245E2,-1.004289627E1,-2.944305182E0,-4.949864864E0
1.363234917E2,-7.446476936E0,-7.226673603E0,-6.404703140E0
1.364235581E2,-1.506580067E1,1.169518089E1,1.551166725E1
1.365236243E2,6.600018740E-1,9.566259384E-1,-9.117794037E-1
1.366236908E2,3.463254452E0,-1.171201134E1,-2.402137518E0
1.367237563E2,8.140583038E0,-7.910655975E0,-7.557929039E0
1.368238235E2,-3.970781803E0,8.959367752E0,1.771030807E1
1.369238912E2,-9.017847061E0,1.431868076E0,2.780587196E0
1.370239637E2,-8.743694305E0,-5.822964191E0,-5.124753952E0
1.371240310E2,-1.016864300E1,-3.156673431E0,-3.078616619E0
1.372240981E2,-3.205657959E0,6.481327057E0,2.073422241E1
1.373241614E2,1.106822371E0,-6.862678528E0,1.212069035E0
1.374242343E2,1.046079922E1,-1.371782780E1,-2.030477524E-1
1.375243076E2,-3.932276726E0,3.048214912E-1,7.694625854E0
1.376243744E2,-5.084532738E0,8.102935791E0,1.446387386E1
1.377244379E2,-9.968578339E0,-4.114240170E0,-3.483235836E0
1.378244995E2,-8.257988930E0,-7.219555855E0,-5.531306267E0
1.379245690E2,-1.592814827E1,1.088831139E1,2.246450043E1
1.380246341E2,-1.580262899E0,7.081279755E-1,1.719328642E0
1.381247017E2,4.182622910E0,-1.268307686E1,-3.113822937E-1
1.382247669E2,5.146553516E0,-8.967474937E0,-8.878206253E0
1.383248340E2,-3.387019396E0,1.407122135E1,3.068627548E1
1.384249001E2,-7.650060177E0,3.864531517E-1,-3.749347210E0
1.385249673E2,-1.246186447E1,-5.777928352E0,-4.370345592E0
1.386250342E2,-1.229767609E1,3.330349922E-1,3.013638020E0
1.387251008E2,6.860655785E0,4.690104485E0,1.646476173E1
1.388251676E2,-3.191022396E0,-8.454095840E0,-2.392692089E0
1.389252348E2,4.713191986E0,-1.479503059E1,-2.646264791E0
1.390253025E2,5.010641575E0,1.803949833E0,1.601354218E1
1.391253701E2,-2.721271992E0,6.534931183E0,1.636922455E1
1.392254370E2,-1.018734360E1,-3.907240152E0,-2.468962431E0
1.393255041E2,-9.714912415E0,-8.483279228E0,-2.708554983E0
1.394255708E2,-1.350077534E1,9.663512230E0,1.237935066E1
1.395256379E2,-5.640367270E-1,3.571978569E0,3.410801411E0
1.396257040E2,2.300172806E0,-1.202794266E1,6.817374229E-1
1.397257692E2,8.425405502E0,-1.211752701E1,-9.634518623E0
1.398258369E2,-5.242815018E0,1.158905125E1,2.527082825E1
1.399259059E2,-8.001313210E0,1.566643715E0,-1.955559254E0
1.400259755E2,-1.376766682E1,-7.796931267E0,-2.059431076E0
1.401260434E2,-7.443847179E0,-3.923009396E0,-7.249634266E0
1.402261101E2,8.912968636E0,8.098856926E0,2.350098228E1
1.403261868E2,-2.858009934E-1,-7.011455536E0,-2.889002085E0
1.404262529E2,7.301959038E0,-1.368095016E1,2.692472458E0
1.405263216E2,1.749292850E0,-3.494764328E0,4.924785614E0
1.406263773E2,-5.861866474E0,8.102964401E0,2.593636894E1
1.407264425E2,-9.035020828E0,-3.491876125E0,3.997941017E-1
1.408265101E2,-7.468568802E0,-9.027379990E0,-3.187954903E0
1.409265789E2,-1.334286690E1,9.468349457E0,1.691643906E1
1.410266487E2,2.343246222E0,4.272117615E-1,2.610289574E0
1.411267139E2,3.486387253E0,-1.306259346E1,1.341141939E0
1.412267810E2,4.319399834E0,-9.319033623E0,-9.823680878E0
1.413268468E2,9.932413101E-1,1.274117374E1,1.658822441E1
1.414269208E2,-8.130765915E0,1.098376274E0,1.425425529E0
1.415269877E2,-1.071890068E1,-7.797839642E0,-3.679936409E0
1.416270573E2,-7.798039436E0,-3.395728111E0,-6.315233231E0
1.417271190E2,2.953789949E0,7.327589035E0,2.281029892E1
1.418271871E2,-9.132053256E-1,-6.739877224E0,5.190491676E-2
1.419272518E2,8.350330353E0,-1.437158775E1,4.175162315E-1
1.420273192E2,2.794099808E0,-2.092501640E0,4.236817360E0
1.421273895E2,-1.244679165E1,7.470487595E0,2.316905975E1
1.422274564E2,-9.255863190E0,-8.247712135E0,-7.443442345E0
1.423275209E2,-1.018011093E1,-1.042514992E1,-3.211006165E0
1.424275842E2,-1.184107685E1,1.133905983E1,2.488834953E1
1.425278481E2,1.332182884E0,2.735697746E0,1.145213127E0
1.426279150E2,6.643282413E0,-1.331861496E1,3.354839563E0
1.427279862E2,3.719371319E0,-9.159484863E0,-9.647103310E0
1.428280526E2,2.131136417E0,1.437981415E1,2.061790657E1
1.429281204E2,-9.905439377E0,-7.141919136E-1,9.790585041E-1
1.430281834E2,-9.526774406E0,-9.116951942E0,-2.349883556E0
1.431282495E2,-9.216291428E0,-4.155822754E0,-4.771072388E0
1.432283167E2,7.362394333E0,9.237545013E0,2.234903908E1
1.433283837E2,7.090242505E-1,-7.893821239E0,2.121304274E-1
1.434284511E2,9.233705521E0,-1.580018806E1,-9.819467068E-1
1.435285182E2,3.921352386E0,-1.743358135E0,1.047016335E1
1.436285852E2,-6.664567947E0,9.379035950E0,1.871536064E1
1.437286510E2,-8.864831924E0,-6.321359634E0,-4.931366920E0
1.438287178E2,-1.004740047E1,-9.352617264E0,-4.925094128E0
1.439287853E2,-1.502369690E1,1.318672371E1,2.554605865E1
1.440288538E2,-3.786900342E-1,-1.161406517E0,1.114012837E0
1.441289211E2,7.655839920E0,-1.427306938E1,2.012331963E0
1.442289883E2,1.073929787E0,-8.795851707E0,-6.293688774E0
1.443290554E2,2.888526917E0,1.659411812E1,2.520067596E1
1.444291224E2,-1.048273087E1,1.759004593E-2,4.626018524E0
1.445291904E2,-7.677673340E0,-8.675929070E0,-5.911020279E0
1.446292588E2,-1.362562275E1,-6.030838966E0,-4.470343590E0
1.447293244E2,6.303164482E0,1.067342091E1,2.061971855E1
1.448293907E2,-6.999549866E0,-6.367652893E0,-3.115713596E0
1.449294562E2,5.664525032E0,-1.570450211E1,-2.952803612E0
1.450295254E2,7.291851044E-1,-1.154209614E0,5.288678169E0
1.451295928E2,-3.424480915E0,1.012548828E1,1.595213890E1
1.452296603E2,-1.044524765E1,-3.118089676E0,-3.348467350E0
1.453297283E2,-1.289691544E1,-6.595167160E0,3.893117905E-1
1.454297951E2,-1.658838081E1,1.332584476E1,2.448033905E1
1.455298617E2,-2.754852057E0,8.418931961E-1,2.825096846E0
1.456299286E2,4.530259132E0,-1.316791725E1,4.183477402E0
1.457299940E2,2.697365761E0,-7.636846542E0,-1.099598980E1
1.458300662E2,-2.868787527E0,1.031057835E1,7.081603050E0
1.459301331E2,-1.093250465E1,1.323594093E0,6.725584507E0
1.460302049E2,-8.292272568E0,-6.813216209E0,-3.770605326E0
1.461302738E2,-1.271706390E1,-4.831344604E0,-5.709023476E0
1.462303405E2,-5.116773605E0,8.774518967E0,2.501278687E1
1.463304060E2,-1.688927174E0,-5.798193932E0,-1.475405693E-2
1.464304666E2,5.887474060E0,-1.333211994E1,-1.224893332E0
1.465305335E2,2.494307995E0,-3.467534304E0,8.001691818E0
1.466305981E2,-7.817862034E0,1.028075981E1,1.934961891E1
1.467396024E2,-1.104469681E1,-3.120853901E0,-1.410702705E0
1.468460079E2,-9.149055481E0,-8.825236320E0,-2.295902252E0
1.469524156E2,-1.383012009E1,1.261870956E1,2.902429962E1
1.470608957E2,-3.088176250E0,-1.693317413E0,-1.663913965E0
1.471609624E2,5.915865421E0,-1.337758636E1,2.869248867E0
1.472610289E2,2.121810913E0,-6.434044838E0,-8.200899124E0
1.473610907E2,-5.048317909E-1,1.460709953E1,2.551248932E1
1.474611582E2,-8.880230904E0,4.841537476E-1,-3.910775185E-1
1.475612256E2,-1.024968338E1,-7.927272797E0,-3.041954756E0
1.476612921E2,-1.525607300E1,1.770713806E0,6.585695744E-1
1.477613630E2,4.079929829E0,7.830805779E0,8.425174713E0
1.478614326E2,-1.953696370E0,-1.081206417E1,-7.253203392E-1
1.479614997E2,7.583241463E0,-1.132315063E1,-4.612689972E0
1.480615685E2,-8.874411583E-1,6.097820759E0,1.404997063E1
1.481616365E2,-7.471402645E0,5.208896160E0,9.434228897E0
1.482617032E2,-1.095119095E1,-4.078022957E0,-4.701885700E0
1.483617647E2,-1.033300495E1,-7.137405396E0,-4.326948166E0
1.484618371E2,-6.957106590E0,1.610121918E1,3.442208481E1
1.485619046E2,-1.210900187E0,-5.026460648E0,-4.748406410E-1
1.486619697E2,6.219190121E0,-1.472503853E1,-1.177031994E0
1.487620268E2,2.984777927E0,-6.981715679E0,-8.566984177E0
1.488620938E2,1.346367359E0,1.308817005E1,2.557225800E1
1.489621628E2,-1.099108124E1,-1.855788231E0,7.616930008E-1
1.490622304E2,-7.688737869E0,-7.894918919E0,-2.702166080E0
1.491623020E2,-1.433219910E1,-7.054738998E-1,-1.338919401E0
1.492623692E2,4.226351738E0,5.243492126E0,8.090989113E0
1.493624366E2,1.476423621E0,-9.332729340E0,-2.180940628E0
1.494624990E2,9.278233528E0,-1.368280983E1,-1.244365454E0
1.495625683E2,-2.387256622E-1,6.519108772E0,1.403379250E1
1.496626334E2,-8.307458878E0,6.137998581E0,7.065772533E0
1.497722009E2,-9.459131241E0,-6.747112274E0,-3.574717045E0
1.498722693E2,-1.017887115E1,-6.032181740E0,-5.578315735E0
1.499723386E2,-4.975521088E0,1.254011345E1,2.763598442E1
1.500724065E2,-1.867260218E0,-6.176805496E0,-1.417366505E0
1.501724718E2,7.481620789E0,-1.404035282E1,-2.693712473E0
1.502725447E2,1.410187244E0,7.882304192E-1,1.000652313E1
1.503726126E2,-7.837070465E0,2.942930222E0,1.393258858E1
1.504726783E2,-4.423015594E0,-5.948538780E-1,-4.958413124E0
1.505727403E2,-4.596261978E0,-4.851099968E0,-3.965093613E0
1.506728104E2,-5.666443825E0,3.882978916E0,7.192282200E0
1.507728767E2,-5.887496471E0,3.088066578E0,1.532461643E0
1.508729430E2,3.464302540E0,-5.914067745E0,-3.284985065E0
1.509730084E2,3.088178635E0,-5.803438187E0,-2.600445747E0
1.510730851E2,-1.937910318E0,4.376422405E0,-7.160944939E-1
1.511731526E2,-4.259755135E0,2.478775024E0,-3.068775654E0
1.512732185E2,-5.190024853E0,-4.298620224E0,-2.602206707E0
1.513732770E2,-5.460393429E0,-3.660058498E0,-5.147520542E0
1.514733436E2,-1.975233793E0,8.102339745E0,1.870017242E1
1.515734102E2,2.393160820E0,2.379035950E-2,-2.490115404E0
1.516734755E2,8.175782204E0,-1.313854599E1,-2.066623688E0
1.517735427E2,1.443044186E0,-5.894322872E0,-3.498209476E0
1.518736097E2,3.511084557E0,1.398817825E1,2.866170120E1
1.519736797E2,-9.232718468E0,-2.259835720E0,-1.707024813E0
1.520737472E2,-1.040068150E1,-1.014481258E1,-5.764117241E0
1.521738146E2,-1.336795902E1,8.255524635E0,1.263415146E1
1.522738872E2,2.797358990E0,5.012782097E0,2.957294941E0
1.523739573E2,3.229584455E0,-1.368915367E1,5.484239101E0
1.524740295E2,8.490251541E0,-9.538384438E0,-1.102051258E1
1.525740901E2,-5.441522598E-1,1.134047127E1,1.240938187E1
1.526741522E2,-7.780590534E0,3.157777309E0,4.518461227E0
1.527742193E2,-1.038257885E1,-7.392137527E0,-5.093549252E0
1.528742865E2,-1.023602295E1,-7.452074051E0,-4.825283527E0
1.529743553E2,-5.465172291E0,1.438708591E1,3.814914703E1
1.530744234E2,-7.508436441E-1,-3.957907677E0,-3.183908463E-1
1.531744905E2,8.409882545E0,-1.591481972E1,-2.322410583E0
1.532745665E2,4.556839466E0,-2.272988796E0,-1.486652136E0
1.533746307E2,-3.897398710E0,1.052071571E1,1.925690079E1
1.534746977E2,-9.723457336E0,-3.294884920E0,-3.365768433E0
1.535747563E2,-8.491508484E0,-8.110863686E0,-3.656736851E0
1.536748181E2,-1.450639820E1,3.906912804E0,6.132458687E0
1.537748852E2,4.073009968E0,5.264192581E0,7.620897293E0
1.538749533E2,2.926920176E0,-1.067573547E1,-4.592928886E-1
1.539750225E2,8.650533676E0,-1.113815308E1,-8.573110580E0
1.540750909E2,-2.706946611E0,8.404745102E0,1.059625530E1
1.541751603E2,-8.748557091E0,5.089114666E0,5.589903831E0
1.542752268E2,-8.896221161E0,-6.545352936E0,-4.394667625E0
1.543752927E2,-1.152852154E1,-6.018746376E0,-8.105030060E0
1.544753563E2,-1.558296084E0,1.145658875E1,3.593379593E1
1.545754248E2,-9.221620560E-1,-5.755949974E0,-2.387640953E0
1.546754899E2,6.976933956E0,-1.608596992E1,2.546792030E-1
1.547755568E2,4.084820747E-1,-1.716413021E0,-3.085426092E0
1.548756244E2,9.006080627E-1,1.309888077E1,3.066548920E1
1.549756935E2,-9.743215561E0,-2.098693848E0,1.476228118E0
1.550757617E2,-1.238019371E1,-9.292213440E0,4.538580894E0
1.551758278E2,-1.548508549E1,5.510632515E0,8.376564980E0
1.552759015E2,4.213804245E0,3.979637146E0,9.518762589E0
1.553759704E2,1.929428101E0,-1.009255505E1,1.795406342E-1
1.554760372E2,6.825153351E0,-1.265826988E1,-3.698195457E0
1.555761028E2,-1.382058620E0,6.449466228E0,9.220176697E0
1.556761689E2,-5.627194881E0,6.603597641E0,7.546013355E0
1.557762360E2,-1.129020500E1,-6.213991642E0,-2.513728142E0
1.558763026E2,-1.228169060E1,-7.653935432E0,-3.909905910E0
1.559763732E2,-5.633711815E0,1.355207062E1,4.253156281E1
1.560764417E2,-3.238239288E-1,-3.511589527E0,6.700913906E-1
1.561765044E2,5.693463326E0,-1.456384563E1,-4.058015347E-1
1.562765669E2,1.738750935E0,-8.390773773E0,-7.280807495E0
1.563766373E2,1.902761936E0,1.260744858E1,3.070946503E1
1.564767051E2,-8.477959633E0,1.628634930E0,-4.181044102E-1
1.565767722E2,-1.131571865E1,-6.487689018E0,3.562428951E-1
1.566768331E2,-9.888277054E0,7.030467987E-1,-1.719743013E0
1.567769002E2,7.186645985E0,3.228056908E0,1.441569519E1
1.568769664E2,5.985689163E-1,-9.482118607E0,-8.185694218E-1
1.569770357E2,8.267015457E0,-1.408773041E1,4.657621384E-1
1.570772219E2,3.895845890E0,5.684866905E-1,3.749231339E0
1.571772899E2,-6.651403427E0,7.356591702E0,1.200851917E1
1.572773568E2,-1.234992599E1,-3.859769344E0,-2.143220425E0
1.573774238E2,-8.950549126E0,-6.557295322E0,-4.034846306E0
1.574774913E2,-1.047636700E1,1.642179108E1,3.615843964E1
1.575775587E2,-3.046079636E0,-2.463618279E0,7.208918333E-1
1.576776244E2,2.927108288E0,-1.518372154E1,3.314481735E0
1.577776928E2,3.650341511E0,-8.639569283E0,-1.063945293E1
1.578777633E2,2.725982666E0,1.362312984E1,2.529428291E1
1.579778328E2,-7.898194790E0,1.987716675E0,2.220900536E0
1.580778984E2,-1.127684402E1,-6.622176170E0,-2.652554512E-1
1.581779615E2,-7.989326477E0,-3.019071102E0,-1.419492722E0
1.582780275E2,5.336730003E0,8.123398781E0,2.372418594E1
1.583780946E2,2.143060416E-1,-7.004108429E0,-1.589853764E-1
1.584781630E2,7.302447796E0,-1.654769897E1,7.299661636E-3
1.585782304E2,1.953258514E0,-3.125642538E0,3.144399643E0
1.586783007E2,-1.140976429E0,1.023767757E1,2.221384430E1
1.587783664E2,-9.622853279E0,-5.081201553E0,-2.595427036E0
1.588784336E2,-1.042951393E1,-7.618329048E0,-1.577346802E0
1.589784983E2,-1.337995052E1,1.120367622E1,2.109137154E1
1.590785662E2,2.939130545E0,9.207324982E-1,4.911782265E0
1.591786332E2,6.475923538E0,-1.405591965E1,5.727779865E-1
1.592787052E2,4.378026962E0,-9.597328186E0,-7.437489033E0
1.593787787E2,-5.394573212E0,1.079184914E1,2.223347664E1
1.594788453E2,-8.595674515E0,3.315339088E0,2.941102505E0
1.595789069E2,-7.661986351E0,-6.356760979E0,-3.417410374E0
1.596789656E2,-9.880628586E0,-4.553831577E0,-4.636031151E0
1.597790333E2,-4.403364658E0,5.964194298E0,1.928162766E1
1.598791007E2,-2.575206041E0,-5.415923119E0,-2.485956192E0
1.599791699E2,6.017306328E0,-1.150303268E1,3.121022224E0
1.600792365E2,-6.082954407E-1,-1.972228050E0,-1.575381279E0
1.601793034E2,-4.306425095E0,8.276157379E0,2.212607193E1
1.602793741E2,-1.200362968E1,-7.017593384E-1,-2.568016529E0
1.603794448E2,-8.910799980E0,-5.557090759E0,1.101440668E0
1.604795123E2,-1.314561462E1,5.380992889E0,8.859981537E0
1.605795767E2,4.110048771E0,4.350257874E0,4.382278919E0
1.606796444E2,1.800984025E0,-9.802350044E0,5.311474800E-1
1.607797103E2,8.335693359E0,-9.430774689E0,-3.162045717E0
1.608797768E2,-3.474025249E0,5.002435207E0,7.983694077E0
1.609798405E2,-9.697639465E0,7.161447048E0,1.080342674E1
1.610799081E2,-9.526405334E0,-3.420487881E0,-7.998936653E0
1.611799752E2,-1.104041290E1,-5.651115417E0,-6.472526550E0
1.612899818E2,-7.220157146E0,1.327383804E1,2.712297440E1
1.613900489E2,7.362580299E-1,-1.566162586E0,-3.739060640E0
1.614901160E2,3.421295643E0,-1.690639496E1,1.420461178E0
1.615902509E2,2.303019047E0,-3.330840588E0,-8.052087784E0
1.616903162E2,-1.012907505E0,1.272080040E1,2.848617935E1
1.617903833E2,-9.589341164E0,1.568128586E0,-2.836457014E0
1.618904516E2,-9.945208549E0,-4.521983624E0,-3.536213636E0
1.619905260E2,-1.364266872E1,2.068404198E0,4.784962177E0
1.620905929E2,4.957427025E0,3.668732643E0,6.501893044E0
1.621906578E2,9.416449070E-2,-9.379980087E0,-1.830427408E0
1.622907207E2,4.494935036E0,-1.194100571E1,-1.685440063E0
1.623907941E2,5.962457657E-1,2.448706627E0,6.083365917E0
1.624908612E2,-3.681026220E0,9.598026276E0,9.906093597E0
1.625909275E2,-1.123465729E1,-4.819529533E0,-5.086589813E0
1.626909862E2,-1.060504055E1,-7.111688614E0,-4.698033810E0
1.627910539E2,-7.165175438E0,1.549878311E1,3.980715561E1
1.628911207E2,-3.921147823E0,-6.152337074E0,-3.568150043E0
1.629911897E2,4.769314766E0,-1.583861542E1,-1.294655323E0
1.630912564E2,3.770873070E0,-5.122331619E0,-5.758669376E0
1.631913248E2,5.410056114E-1,1.468043804E1,3.146739578E1
1.632913923E2,-8.704417229E0,1.554083824E-1,-8.512430191E-1
1.633914592E2,-1.093463230E1,-6.956737041E0,-3.155494213E0
1.634915250E2,-1.548492718E1,3.354396820E-1,-2.267156124E0
1.635915925E2,6.068006516E0,5.050076485E0,8.346333504E0
1.636916595E2,-4.270384312E-1,-1.057134151E1,-9.918637276E-1
1.637917281E2,5.524843693E0,-1.239554214E1,-2.853340864E0
1.638917969E2,-1.091276646E0,5.972650528E0,1.535431862E1
1.639918660E2,-7.034657955E0,7.677954197E0,5.759083271E0
1.640919336E2,-1.036712074E1,-5.694276810E0,-2.760470629E0
1.641919994E2,-9.675945282E0,-6.178030968E0,-4.893218994E0
1.642920656E2,-1.204510784E1,1.331873798E1,3.395178223E1
1.643922349E2,-2.432650328E-1,-4.497037888E0,-3.844070911E0
1.644923024E2,5.450253487E0,-1.423070717E1,-2.356432438E0
1.645923691E2,4.089396477E0,-4.505757332E0,-3.452750444E0
1.646924403E2,3.861426353E0,1.158083820E1,2.308062744E1
1.647925067E2,-1.482171822E1,-5.090580940E0,1.624094486E0
1.648925734E2,-8.692097664E0,-9.405164719E0,-5.622821808E0
1.649926365E2,-1.439609337E1,3.719997406E-2,-1.112726927E0
1.650927037E2,6.760078907E0,6.346959114E0,1.246449566E1
1.651927710E2,4.422555447E0,-1.203853226E1,1.319793463E0
1.652928383E2,5.485042572E0,-1.356103706E1,-9.915250778E0
1.653929055E2,3.830480576E-2,6.608411312E0,1.781450653E1
1.654929726E2,-7.309228420E0,4.329755783E0,7.182390213E0
1.655930394E2,-1.398403835E1,-7.146592617E0,-1.884389520E0
1.656931042E2,-8.131327629E0,-8.488348961E0,-3.414078951E0
1.657931709E2,4.580845356E0,1.381925011E1,4.526670456E1
1.658932430E2,-1.633817792E0,-4.165338516E0,-1.921060324E0
1.659933126E2,4.230496883E0,-1.672492599E1,-1.785967827E0
1.660933798E2,9.204039574E-1,-6.241861343E0,2.833969593E-1
1.661934427E2,4.075276375E0,1.296655655E1,2.980070114E1
1.662935106E2,-8.782076836E0,-3.665879488E0,-1.239773154E0
1.663935788E2,-1.070509624E1,-8.691787720E0,-2.123822212E0
1.664936455E2,-1.724680138E1,8.190158844E0,1.287775230E1
1.665937116E2,5.669789314E0,1.318021774E0,4.060172081E0
1.666937759E2,4.305732250E-1,-1.188834190E1,-9.656248093E-1
1.667938421E2,7.561917305E0,-1.181049156E1,-5.330292702E0
1.668939158E2,-1.316017628E0,9.180620193E0,2.399875069E1
1.669939851E2,-7.295478344E0,3.959870815E0,1.787098885E0
1.670940528E2,-1.178979683E1,-6.651909828E0,7.985281944E-2
1.671941134E2,-1.267004776E1,-5.158795357E0,-5.230381012E0
1.672941807E2,8.600934029E0,1.100183678E1,1.660852814E1
1.673942481E2,-2.692452431E0,-1.012401199E1,-1.240986586E0
1.674943153E2,8.742854118E0,-1.459787083E1,3.054159641E0
1.675943853E2,1.631520748E0,-6.334986687E-1,1.332678604E1
1.676944500E2,-2.764836311E0,8.180052757E0,1.356423378E1
1.677945165E2,-1.121018600E1,-5.616357803E0,-4.087028980E0
1.678945845E2,-1.005863667E1,-7.564280987E0,-2.401033878E0
1.679946538E2,-9.122563362E0,1.752309227E1,4.076129913E1
1.680947223E2,-2.922038317E0,-3.203413486E0,-1.427547693E0
1.681947863E2,6.678385735E-1,-1.284406185E1,7.068934441E-1
1.682948534E2,4.647573471E0,-1.066996384E1,-5.057387352E0
1.683949204E2,1.503273487E0,1.049707603E1,1.435724545E1
1.684949865E2,-6.374313354E0,1.232125282E0,6.992524147E0
1.685950534E2,-1.114959240E1,-8.568415642E0,-2.250773668E0
1.686951176E2,-1.126257896E1,-5.758632660E0,-8.077781677E0
1.687951845E2,4.911135674E0,1.160514641E1,2.722567749E1
1.688952522E2,1.423329353E0,-9.131093025E0,4.810901642E0
1.689953217E2,7.487938881E0,-1.549040985E1,-1.747116566E0
1.690953903E2,1.554258347E0,-5.132982254E0,3.663519621E0
1.691954621E2,3.372427940E0,1.175232029E1,2.510773849E1
1.692955355E2,-1.091937637E1,-3.348278046E0,-1.971502304E0
1.693956077E2,-9.804729462E0,-8.716073036E0,-3.723682404E0
1.694956816E2,-1.287920475E1,1.201724529E1,2.278256989E1
1.695957420E2,2.988089561E0,3.945006371E0,1.325041294E0
1.696958007E2,2.054674387E0,-1.435445690E1,6.342681646E-1
1.697958616E2,1.341744900E0,-1.160657787E1,-8.121849060E0
1.698959359E2,-3.104313374E0,1.146868515E1,1.625188637E1
1.699960053E2,-6.041105747E0,7.254179001E0,7.592366338E-1
1.700960700E2,-1.251159668E1,-7.459921360E0,2.652162552E0
1.701961307E2,-1.073311424E1,-2.467985153E0,-6.402926445E0
1.702962023E2,3.186209917E0,8.869909286E0,2.709482574E1
1.703962712E2,-2.109093428E0,-7.884934902E0,-8.492819071E-1
1.704963379E2,5.501025200E0,-1.545946312E1,-3.590290546E-1
1.705963998E2,2.796173096E0,-1.214092255E0,6.371345520E0
1.706964602E2,-4.996439934E0,8.558717728E0,2.342218781E1
1.707965274E2,-1.090499401E1,-2.201177597E0,-1.673388600E0
1.708965950E2,-1.056342888E1,-7.024830341E0,1.371130943E-1
1.709966642E2,-1.132472801E1,1.428312778E1,2.506964302E1
1.710967336E2,-1.609955430E-1,1.443600655E0,1.338382602E0
1.711968011E2,3.258766651E0,-1.417260170E1,2.894977808E0
1.712968741E2,3.390349865E0,-9.343529701E0,-9.769323349E0
1.713969390E2,-2.078491688E0,1.435089111E1,2.341974068E1
1.714970058E2,-9.415281296E0,1.507712841E0,-5.523536205E-1
1.715974426E2,-8.977231026E0,-6.603188992E0,-2.621688604E0
1.716975077E2,-1.041023159E1,-2.889528751E0,3.265240192E-1
1.717975746E2,5.725852966E0,9.487716675E0,1.807956505E1
1.718976416E2,-2.341334820E-1,-7.564662933E0,1.904752254E-1
1.719977110E2,6.156087399E0,-1.597325325E1,-1.093453646E0
1.720977817E2,-1.979242325E0,2.244659424E0,1.101806355E1
1.721978497E2,-5.604167461E0,9.019744873E0,1.634184265E1
1.722979169E2,-1.173580647E1,-4.789547920E0,-4.860001087E0
1.723979809E2,-1.110886765E1,-8.008067131E0,-1.007380486E0
1.724980473E2,-9.816927910E0,1.761035728E1,3.156595230E1
1.725981143E2,-5.655825734E-1,-2.371696949E0,6.633478403E-1
1.726981803E2,4.137444973E0,-1.388716888E1,1.470596075E0
1.727982473E2,4.270200253E0,-8.972816467E0,-9.812960625E0
1.728983144E2,3.171191216E-1,1.534623909E1,2.464448166E1
1.729983830E2,-9.359392166E0,-1.062636375E0,5.560846329E-1
1.730984502E2,-9.192668915E0,-8.138183594E0,-9.661912322E-1
1.731985174E2,-1.078383541E1,-1.260997772E0,-2.683257818E0
1.732985851E2,7.986439705E0,1.092651081E1,1.145877457E1
1.733986530E2,-3.906588554E0,-1.072861862E1,1.829739332E0
1.734987201E2,7.699403286E0,-1.453872299E1,-4.894147873E0
1.735987866E2,-2.298837662E0,6.726058006E0,7.263667107E0
1.736988516E2,-6.666162014E0,8.015498161E0,5.064231873E0
1.737989182E2,-1.029925346E1,-5.806916237E0,-3.646219730E0
1.738989854E2,-1.059067917E1,-5.612627983E0,-3.261209011E0
1.739990540E2,-6.485347748E0,1.817702103E1,3.848672485E1
1.740991223E2,-2.468595266E0,-3.675394058E0,-1.289646149E0
1.741991962E2,3.625602007E0,-1.476875877E1,-1.436613321E0
1.742992653E2,2.588696480E-1,-7.847102642E0,-1.184571457E1
1.743993338E2,8.854711533E0,1.670290375E1,3.146083069E1
1.744993945E2,-9.699877739E0,-1.692017078E0,-4.025210440E-1
1.745994597E2,-1.225000572E1,-9.195703506E0,1.686926126E0
1.746995237E2,-1.267725945E1,3.554205894E0,7.381813526E-1
1.747995896E2,7.630035400E0,8.404246330E0,1.605046844E1
1.748996567E2,1.448699236E0,-1.142007828E1,-4.096747637E-1
1.749997248E2,7.413032055E0,-1.285700798E1,-4.462638855E0
1.750997928E2,-1.670807362E0,4.597839832E0,6.032989979E0
1.751998601E2,-5.195539474E0,9.621608734E0,8.999664307E0
1.752999298E2,-1.098603535E1,-6.271624088E0,-1.437856674E0
1.753999993E2,-9.974184036E0,-8.678098679E0,-2.788807154E0
1.755000720E2,-1.364723587E1,1.614675522E1,3.814110565E1
1.756001364E2,2.245668173E-1,-7.780828476E-1,2.174335718E0
1.757001991E2,3.254458427E0,-1.521483803E1,1.526422024E0
1.758002601E2,1.954889297E0,-7.554231167E0,-6.623723030E0
1.759003273E2,3.573253632E0,1.677647972E1,3.082135963E1
1.760004015E2,-9.613469124E0,-1.401549816E0,8.841488957E-1
1.761004698E2,-1.153060341E1,-9.311422348E0,9.650880098E-1
1.762005383E2,-8.756905556E0,5.721330643E-1,-3.789646626E0
1.763006010E2,4.250196934E0,6.374918938E0,1.655813408E1
1.764006676E2,7.327092886E-1,-8.509663582E0,3.519195318E-1
1.765007331E2,6.886279106E0,-1.471025562E1,3.112755299E0
1.766008029E2,-7.182621956E-1,1.818349361E0,9.034770966E0
1.767008681E2,-3.139348984E0,8.688304901E0,7.140312195E0
1.768009350E2,-1.131250381E1,-6.750738621E0,-1.937022090E0
1.769010049E2,-8.546922684E0,-8.229248047E0,-4.108399868E0
1.770010737E2,-1.076841640E1,1.745571899E1,3.698669434E1
1.771011472E2,-7.537981868E-1,-3.911181450E0,1.655273199E0
1.772012080E2,5.657986164E0,-1.597842598E1,5.605036736E0
1.773012751E2,1.403614044E0,-5.964573860E0,-6.553779125E0
1.774013379E2,9.695134163E-1,1.235250282E1,2.710851860E1
1.775014047E2,-9.973693848E0,-2.373480320E0,3.248310089E-1
1.776014717E2,-8.627728462E0,-9.850763321E0,-9.597998261E-1
1.777015351E2,-1.437890053E1,-2.575935841E0,-3.480113029E0
1.778016031E2,5.513224602E0,7.105251312E0,2.021500587E1
1.779016707E2,4.679403305E-1,-8.676312447E0,4.804060459E0
1.780017403E2,3.887475967E0,-1.398012066E1,-1.517747402E0
1.781018071E2,-2.393666983E0,1.074036598E0,1.623806238E0
1.782018747E2,-2.794430017E0,1.137788200E1,1.417162514E1
1.783019462E2,-9.835387230E0,-5.270948410E0,-4.952612877E0
1.784020140E2,-1.232949257E1,-8.351373672E0,-2.715313911E0
1.785020821E2,-1.365506077E1,1.835722733E1,3.493720627E1
1.786021444E2,1.261144757E0,-1.935026646E0,5.111826658E-1
1.787022091E2,4.059770584E0,-1.680619431E1,3.250486612E0
1.788022742E2,2.434095383E0,-8.791961670E0,-7.315819263E0
1.789025020E2,2.052765369E0,1.660671997E1,3.790573502E1
1.790025709E2,-8.908913612E0,8.922381401E-1,-2.119227409E0
1.791026387E2,-1.181825066E1,-8.445783615E0,2.628378272E-1
1.792027067E2,-1.118341923E1,-2.282657623E-1,-1.212594032E0
1.793027731E2,7.290289402E0,7.812237740E0,1.183970642E1
1.794028406E2,-8.517007828E-1,-8.290017128E0,3.255489349E0
1.795029083E2,6.184781075E0,-1.457380295E1,1.087196589E0
1.796029761E2,7.100772858E-1,-2.386524200E0,2.310913801E0
1.797030405E2,3.318419456E-1,1.196383095E1,1.584658432E1
1.798031057E2,-1.185315990E1,-7.201632500E0,-2.078127623E0
1.799031737E2,-1.014540958E1,-9.963161469E0,-1.712393045E0
1.800032442E2,-9.382276535E0,1.962551880E1,3.335102081E1
1.801033119E2,-3.958779275E-1,-2.632571220E0,2.272038698E0
1.802033782E2,4.739341259E0,-1.514547920E1,3.627870083E0
1.803034442E2,3.520140171E0,-1.089600658E1,-1.027352142E1
1.804035119E2,5.150061131E0,1.572766781E1,3.409519196E1
1.805035787E2,-8.270601273E0,7.747697830E-2,-3.673933744E-1
1.806036459E2,-1.109469414E1,-9.471597672E0,-1.105874777E0
1.807037103E2,-1.150401974E1,-1.436595917E-1,7.625601292E-1
1.808037827E2,8.006539345E0,8.654113770E0,1.087851810E1
1.809038505E2,-4.144088030E-1,-1.006969738E1,3.641139984E0
1.810039199E2,7.692535877E0,-1.346377563E1,-2.750960350E0
1.811039828E2,2.707066536E-1,6.410507679E0,1.270134163E1
1.812040496E2,-4.171901703E0,4.342875004E0,4.923237324E0
1.813041183E2,-9.182544708E0,-3.603948593E0,2.692079544E-1
1.814041847E2,-1.087572479E1,-4.054848194E0,-2.578836203E0
1.815042512E2,1.731132150E0,1.044906521E1,2.438953972E1
1.816043170E2,2.161411762E0,-3.401443005E0,1.465838313E0
1.817043824E2,7.425499916E0,-1.094190693E1,7.034935474E0
1.818044505E2,-1.687436104E-1,-5.848311424E0,5.563310623E0
1.819045214E2,-3.982478142E0,6.031790257E0,1.220820332E1
1.820045905E2,-6.353920937E0,3.234535217E0,5.702054024E0
1.821046623E2,-1.079332447E1,-2.945606709E0,1.168468475E0
1.822047265E2,-3.141245842E0,1.180851173E1,1.723792458E1
1.823047935E2,2.678062439E0,3.428459167E-2,6.008380890E0
1.824048554E2,8.159403801E0,-1.133565617E1,-4.777023315E0
1.825049231E2,4.240115166E0,-7.666964531E0,-3.079172134E0
1.826049903E2,1.357872009E0,1.142880058E1,1.966760254E1
1.827050558E2,-9.805126190E0,1.044099331E0,-1.003453970E0
1.828051211E2,-7.704243660E0,-5.596556187E0,-5.517833233E-1
1.829051881E2,-1.006533432E1,-1.359835148E0,3.078875780E0
1.830052568E2,2.864969492E0,8.021827698E0,1.439751244E1
1.831135988E2,2.224506140E0,-6.020339966E0,2.429640293E-1
1.832200036E2,4.955596924E0,-1.167001820E1,-1.298298120E0
1.833264081E2,1.628329754E0,6.255853176E0,5.728197575E0
1.834355454E2,-7.416999340E0,5.481362820E0,2.934926271E0
1.835356125E2,-7.568718910E0,-3.854572773E0,-7.975409031E-1
1.836356787E2,-1.063982677E1,-4.519899845E0,-9.111690521E-2
1.837357454E2,-7.324240685E0,1.264198112E1,1.748514938E1
1.838358126E2,1.880954027E0,2.401523590E0,3.293906212E0
1.839358828E2,9.948249817E0,-1.467161751E1,1.820993423E-1
1.840359508E2,1.599734306E0,-8.077887535E0,-1.846007109E0
1.841360209E2,-5.553421974E-1,1.401229572E1,2.019379616E1
1.842360857E2,-1.004892635E1,1.936616421E0,1.956218004E0
1.843361525E2,-8.545326233E0,-3.611105919E0,8.393772840E-1
1.844362163E2,-1.054391384E1,-3.174660683E0,5.474768877E-1
1.845362837E2,3.665691614E-1,1.021623898E1,1.798637199E1
1.846363498E2,2.952800512E0,-5.555947304E0,4.641911507E0
1.847364150E2,5.552361488E0,-1.038601589E1,-1.190598249E0
1.848364816E2,-3.171769142E0,-9.983177185E-1,1.086716413E0
1.849365530E2,-7.008670330E0,9.530057907E0,1.665218735E1
1.850366223E2,-5.779623032E0,-3.104224205E-1,-7.845546722E0
1.851366902E2,-1.182595921E1,-5.509999752E0,-1.325474739E0
1.852367561E2,-5.089922905E0,1.335577965E1,2.164507294E1
1.853368234E2,2.519345760E0,1.994610786E0,2.606667995E0
1.854368905E2,2.379400969E0,-1.276242828E1,6.408281326E-1
1.855369560E2,8.133144379E-1,-6.848575592E0,-1.518943548E0
1.856370223E2,-3.013845444E0,1.334821892E1,-8.408794403E-1
1.857370915E2,-3.451976299E0,3.979761124E0,-2.085073709E0
1.858371583E2,-6.467428684E0,-6.106506348E0,-1.576713562E0
1.859372262E2,5.674002171E-1,-7.300519943E-1,2.932359695E0
1.860372909E2,8.484796524E0,3.943032265E0,3.879764795E0
1.861373358E2,3.731594086E0,-2.386949539E0,2.397068977E0
1.862374072E2,-2.870322227E0,-5.021305084E0,-7.506525993E0
1.863374745E2,-6.004210949E0,-6.354069710E-1,2.868240356E0
1.864375401E2,5.054054737E0,2.709543705E0,-4.821548939E0
1.865376030E2,-4.507682800E0,-2.449468613E0,-2.040515900E0
1.866376694E2,-1.719821930E0,-2.207529068E0,1.749182940E0
1.867377354E2,-1.956939220E0,2.846231461E-1,-1.957960010E0
1.868378026E2,2.126197577E0,1.753150940E0,6.300337315E-1
1.869378706E2,3.102687120E0,-3.630156517E0,1.465890408E0
1.870379389E2,-1.822857857E-1,-1.458361149E0,5.013602257E0
1.871380061E2,-5.894661903E0,4.430563927E0,6.054240465E-1
1.872380733E2,-1.990677118E0,6.413078308E-2,3.411707401E0
1.873381474E2,-1.908358812E0,-3.027348995E0,-7.298624516E-1
1.874382145E2,1.322608471E0,-2.309040546E0,2.907659292E0
1.875382816E2,-6.528265476E-1,3.200495720E0,-1.584552765E0
1.876383413E2,2.579593897E0,-1.746494293E0,1.564370036E0
1.877384070E2,6.382082462E0,-2.809079647E0,3.972243786E0
1.878384738E2,-3.433504343E0,2.712535858E-1,-6.213242054E0
1.879385415E2,-5.546318054E0,5.810203552E-1,-8.623024940E0
1.880386098E2,-4.900401115E0,-4.908288002E0,-3.390399218E0
1.881386776E2,1.137577534E0,-4.494352341E0,2.768589497E0
1.882387448E2,8.978445053E0,1.117670059E0,1.077837944E-1
1.883388122E2,-3.147540092E-1,9.381551743E-1,1.793691635E0
1.884388790E2,4.045233250E0,-4.826087952E-1,-4.435882568E-1
1.885389459E2,-9.151062965E-1,-2.660564423E0,3.077478170E0
1.886390122E2,-7.293718338E0,5.430023193E0,1.712800264E0
1.887390781E2,-3.857022285E0,1.864722252E0,6.231229305E-1
1.888391457E2,1.184108257E-1,-3.405208111E0,-2.585296631E-1
1.889392173E2,-1.602034569E-1,-1.510641575E0,-1.315119267E0
1.890392857E2,-2.019622326E0,1.664654732E0,-5.396045685E0
1.891393533E2,2.015368938E-1,-2.939256668E0,-2.329320669E0
1.892394169E2,6.238032341E0,-3.081070900E0,7.729957581E0
1.893394852E2,-3.954966068E0,5.137931824E0,-1.162854910E0
1.894395515E2,-5.668599129E0,6.290810585E0,-1.878505230E0
1.895396297E2,3.281326771E0,-1.290802479E0,2.433184862E0
1.896396947E2,3.144799948E0,-2.993057251E0,1.713316560E0
1.897397605E2,-8.780832291E0,-5.359630585E-1,-4.831615448E0
1.898398219E2,2.151299000E0,2.769012451E-1,-5.589456081E0
1.899398900E2,6.434309006E0,-3.802008867E0,3.331182957E0
1.900399583E2,5.329748154E0,-5.363714695E0,2.899102926E0
1.901400249E2,-6.662676334E0,-4.958168983E0,-8.689664602E-1
1.902400953E2,1.176993847E0,-1.890201569E0,-1.011876106E0
1.903401649E2,-6.843175888E-1,2.667956352E-1,-3.120895386E0
1.904402270E2,-1.801307917E0,2.190046310E0,9.678081274E-1
1.905402915E2,-7.019667625E0,5.700395584E0,3.996102810E-1
1.906403552E2,1.975005150E0,2.068328857E-2,-3.093425512E0
1.907404254E2,9.218069077E0,-5.532886028E0,-4.863415956E-1
1.908404917E2,3.736669540E0,-8.324969292E0,1.254921150E1
1.909405701E2,-5.173126221E0,1.942595482E0,1.492261124E1
1.910406345E2,-6.804128647E0,-2.098529339E0,-1.157371759E0
1.911407101E2,-7.136452198E0,-1.469323158E0,-2.103300095E0
1.912407724E2,-6.280923843E0,6.032104015E0,4.006313324E0
1.913408424E2,8.651428223E-1,4.215183735E0,5.403813839E0
1.914409013E2,7.611361980E0,-4.490375042E0,6.757030487E0
1.915409625E2,9.126816750E0,-2.117955685E0,2.031123638E0
1.916410287E2,1.814075232E0,4.690771103E-1,-7.745742798E-3
1.917410939E2,1.495568752E0,2.610111237E-2,-6.421654224E0
1.918411615E2,2.104608059E0,-1.992659330E0,-6.587629318E0
1.919412333E2,-5.448278427E0,-2.190801620E0,-3.937967062E0
1.920413030E2,-3.314939022E0,8.765971661E-2,4.283044338E0
1.921413702E2,4.308395386E-1,-2.854992390E0,3.445384026E0
1.922414305E2,8.290002823E0,9.996989965E-1,3.172756195E0
1.923414977E2,1.568679810E0,-6.425359249E-1,-3.305813313E0
1.924415650E2,-3.555809975E0,1.024957299E0,3.105278969E0
1.925416319E2,-1.883253574E0,-3.987579346E0,-7.178092003E0
1.926416971E2,-3.722103596E0,-4.367330074E0,-4.027325630E0
1.927417659E2,-5.480020523E0,-5.024677277E0,8.395380974E0
1.928418333E2,1.082503319E0,-1.127850175E0,2.648039818E0
1.929419013E2,7.608384132E0,5.683791041E-1,2.491341114E0
1.930419664E2,2.905501127E0,-8.535352349E-1,1.385353088E0
1.931420339E2,-3.717916489E0,8.784172535E-1,3.754714012E0
1.932421009E2,-3.200115681E0,-4.623762608E0,-6.767115593E0
1.933423025E2,-6.409439564E0,-7.387546539E0,-6.209606647E0
1.934423697E2,-8.330917358E-1,-2.443601608E0,1.174383163E1
1.935424433E2,5.731670856E0,4.703678131E0,7.125283718E0
1.936425091E2,1.003070641E1,-1.457888842E0,-5.533241272E0
1.937425749E2,7.606332302E0,-3.739256382E0,7.047542572E0
1.938426358E2,-8.817031860E0,-3.763084412E0,1.074151230E1
1.939427043E2,-6.004033566E0,-4.331251144E0,-1.107701778E1
1.940427734E2,-7.607832909E0,-4.528415203E0,1.988224030E0
1.941428412E2,-5.845072746E0,2.326947689E0,1.026515961E1
1.942429083E2,5.319402695E0,8.194441795E-1,2.502640724E0
1.943429747E2,1.204518795E1,-5.511695385E0,2.066520691E0
1.944430412E2,1.052604294E1,-4.354674339E0,-2.009105206E0
1.945431084E2,-2.930943012E0,1.212090969E0,1.207477665E1
1.946431740E2,-7.853359699E0,-1.219947338E0,-8.004743576E0
1.947432397E2,-8.420196533E0,-4.479876041E0,4.828014374E-1
1.948433069E2,-3.582623482E0,4.450034142E0,1.485572052E1
1.949433755E2,3.640729189E0,1.875350475E0,3.077566147E0
1.950434441E2,7.745504856E0,-6.732728004E0,5.154290199E-1
1.951435113E2,1.083329296E1,-4.671136379E0,-2.111784935E0
1.952435784E2,-3.291469574E0,3.622414589E0,8.198923111E0
1.953436456E2,-8.279560089E0,-1.482777596E-1,-5.723211765E0
1.954437127E2,-5.356448174E0,-1.476333141E0,-1.192418575E0
1.955437801E2,-3.978422165E0,-1.124768257E-1,3.001490593E0
1.956438463E2,3.624536753E0,2.964207649E0,5.770746231E0
1.957439123E2,5.939109802E0,-6.543811798E0,-2.241765976E0
1.958439848E2,8.521835327E0,-7.250758648E0,-6.239645004E0
1.959440528E2,2.964709282E0,1.411713600E0,6.899775028E0
1.960441209E2,-3.184950590E0,3.415845871E0,1.406032562E0
1.961441822E2,-7.262338638E0,-6.586813927E-1,-3.878656626E0
1.962442494E2,-1.007603073E1,1.361188889E-1,-4.699371338E0
1.963443190E2,2.352054596E0,5.000776291E0,1.484619427E1
1.964443873E2,3.889046431E0,-3.905401468E0,-9.626379013E-1
1.965444542E2,8.418680191E0,-1.154032707E1,-4.645155430E0
1.966445177E2,3.843141556E0,-3.028553486E0,-2.064856529E0
1.967445824E2,1.658870220E0,8.732366562E-1,2.636472702E1
1.968446491E2,-1.078708076E1,-3.484725952E-1,-3.285158157E0
1.969447175E2,-1.307029724E1,-1.767301083E0,-2.893114090E-1
1.970447866E2,-8.111631870E-1,4.341089725E0,2.036914635E1
1.971448544E2,4.005456924E0,-2.423233509E0,6.895642281E-1
1.972449212E2,8.925010681E0,-9.740196228E0,-3.709173203E-2
1.973449897E2,6.344228745E0,-7.311964035E0,-8.329945564E0
1.974450622E2,3.015689850E-1,2.616990566E0,1.028349590E1
1.975451297E2,-3.377882242E0,1.882361889E0,9.147533417E0
1.976506685E2,-9.651287079E0,6.036934853E-1,5.349811554E0
1.977533965E2,-9.172752380E0,1.443263054E0,1.004216576E1
1.978561358E2,1.965272903E0,2.630033493E-1,5.939780712E0
1.979654071E2,9.628049850E0,-1.087334251E1,-1.183622837E0
1.980654755E2,6.375570297E0,-6.779858589E0,-7.575380325E0
1.981655397E2,-2.752242088E-1,3.546504498E0,9.551290512E0
1.982656064E2,-5.373617172E0,3.095884800E0,3.979060888E0
1.983656729E2,-1.130952644E1,-6.256704330E-1,3.535617828E0
1.984657391E2,-9.045061111E0,1.801845074E0,5.464356422E0
1.985658070E2,3.210114717E0,3.024044991E0,9.523090363E0
1.986658728E2,7.373453617E0,-6.628530502E0,3.166947842E0
1.987659405E2,4.460724831E0,-9.524867058E0,-4.245916367E0
1.988660068E2,2.097092628E0,1.420789719E0,1.681962967E0
1.989660756E2,-7.710835457E0,2.382914543E0,8.864797592E0
1.990661425E2,-9.560180664E0,-6.407344341E-1,1.152068615E0
1.991662100E2,-9.854778290E0,-1.578907490E0,-7.855224609E-2
1.992662810E2,-4.548083782E0,-5.864586830E-1,2.437106323E1
1.993663525E2,1.201644182E0,-2.440468073E0,-2.221214294E0
1.994664252E2,4.901613235E0,-9.178461075E0,-4.038490772E0
1.995664883E2,4.651830673E0,-3.073141575E0,-1.087056160E0
1.996665493E2,-4.152224541E0,3.030020237E0,2.379150009E1
1.997666097E2,-9.623613358E0,8.765273094E-1,-9.845285416E0
1.998666793E2,-1.075791550E1,-4.700146675E0,-4.503113747E0
1.999667544E2,-6.023934841E0,8.800643921E0,1.813912582E1
2.000668235E2,1.512679219E0,1.620410919E0,-3.760428429E-1
2.001668897E2,6.278883934E0,-1.106832123E1,-3.483082294E0
2.002669509E2,5.620170593E0,-4.074217796E0,-3.822301388E0
2.003670199E2,2.097616196E0,2.148967981E0,7.191346169E0
2.004670863E2,-3.747544765E0,1.571045637E0,-1.057192612E1
2.005671540E2,-5.980596066E0,-1.657509804E-2,-3.065388680E0
2.006675941E2,-6.758228302E0,7.511587143E-1,6.010612488E0
2.007676604E2,1.629512548E0,7.755084038E-1,6.582709312E0
2.008677268E2,3.605771542E0,-4.968552589E0,-4.194926262E0
2.009677902E2,7.701490402E0,-8.387756348E0,-6.405873299E-1
2.010678582E2,2.455814362E0,3.185809135E0,4.364249229E0
2.011679254E2,-2.913357258E0,5.480277061E0,2.748973370E0
2.012679923E2,-1.377423000E1,-2.564974785E0,-2.477745771E0
2.013680589E2,-1.395009041E1,-6.710743904E-1,-3.543358088E0
2.014681258E2,2.688399315E0,4.184491158E0,2.152009583E1
2.015681920E2,6.133583546E0,-2.724935055E0,4.881971836E0
2.016682607E2,8.972332954E0,-1.376152039E1,-1.191059589E0
2.017683274E2,5.111166954E0,-3.878941536E0,-2.898615360E0
2.018683987E2,-5.545407772E0,4.650611401E0,8.829311371E0
2.019684642E2,-9.502671242E0,-2.597794533E-1,3.007457733E0
2.020685320E2,-1.396165848E1,-4.812135696E-1,2.075466633E0
2.021685949E2,-6.147586823E0,6.668273926E0,2.771105003E1
2.022686621E2,1.698127031E0,-4.561948776E0,3.369680882E0
2.023687289E2,9.194575310E0,-1.277784920E1,-5.574904442E0
2.024687964E2,4.330274105E0,-7.724423409E0,-1.211760330E1
2.025688646E2,2.914751530E0,5.098919868E0,2.531157112E1
2.026689304E2,-8.783060074E0,4.807057381E-1,2.096576691E0
2.027689964E2,-1.248528194E1,-6.079443455E0,-4.530508995E0
2.028690626E2,-1.214948273E1,-1.265075684E0,-1.367171764E0
2.029691321E2,4.271060944E0,1.320691109E0,2.284235764E1
2.030692003E2,5.790649891E0,-1.070207310E1,-2.480393887E0
2.031692673E2,1.175945091E1,-1.335534477E1,-3.815575600E0
2.032693338E2,-3.505225658E0,1.819973946E0,-3.922595978E-1
2.033694025E2,-1.057512379E1,2.770573139E0,2.433861351E1
2.034694696E2,-7.953454018E0,-3.793274403E0,-8.252829552E0
2.035695369E2,-1.365264320E1,-7.293899536E0,-4.673252583E0
2.036696006E2,-6.725703716E0,1.204839802E1,3.474806976E1
2.037696670E2,-1.715394258E-1,-2.594058514E0,1.290050507E0
2.038697338E2,7.953919888E0,-1.338870621E1,-3.444106102E0
2.039698064E2,5.692356110E0,-5.508344650E0,-3.660807610E-1
2.040698742E2,-5.120980740E0,3.834012508E0,2.327300644E1
2.041699413E2,-9.417704582E0,-1.350670815E0,-1.059853077E0
2.042700049E2,-9.721160889E0,-6.642101765E0,-2.801766396E0
2.043700723E2,-1.225418568E1,2.450153351E0,-5.510902405E-2
2.044701425E2,2.509412050E0,1.165525436E0,1.269377136E1
2.045702094E2,1.899735928E0,-8.597623825E0,-5.661162376E0
2.046702744E2,9.789136887E0,-1.212124062E1,-3.221686840E0
2.047703392E2,-8.078594208E-1,9.964709282E-1,1.206165600E1
2.048704078E2,-1.139899445E1,3.164790630E0,1.249490452E1
2.049704891E2,-9.884773254E0,-4.795043468E0,-8.453556061E0
2.050705556E2,-1.038699341E1,-6.377467632E0,-6.257208347E0
2.051706222E2,-1.052392387E1,4.010382652E0,3.366511154E1
2.052706768E2,4.246783257E0,-4.110182285E0,-3.973995447E0
2.053707441E2,9.581766129E0,-1.444246197E1,2.249342918E0
2.054708098E2,1.903972864E0,-4.148679733E0,1.904875755E0
2.055708772E2,-1.201487541E1,5.742416382E-1,3.064899254E1
2.056709468E2,-8.580423355E0,-3.454977989E0,-6.059141636E0
2.057710138E2,-8.705313683E0,-6.941791534E0,-7.594216824E0
2.058710809E2,-1.190656567E1,7.104566097E0,2.322146606E1
2.059711452E2,-1.097711325E-1,-2.600635052E0,2.439763546E0
2.060712162E2,4.844852924E0,-1.369433975E1,-4.872640133E0
2.061712851E2,9.237312317E0,-6.233609200E0,-4.881830215E0
2.062713519E2,-4.003285408E0,5.815852165E0,1.316192818E1
2.063714168E2,-9.121198654E0,-6.335930824E-1,-1.680599213E0
2.064714823E2,-7.411599636E0,-4.806089401E0,-6.052931786E0
2.065715498E2,-9.929059029E0,-4.596338272E-1,7.912103176E0
2.066716142E2,4.661123753E0,2.026103020E0,1.334830189E1
2.067716822E2,2.818330765E0,-8.524086952E0,-3.590275288E0
2.068717499E2,1.069874477E1,-1.234455109E1,-9.214282036E-1
