"Time (s)","Linear Acceleration x (m/s^2)","Linear Acceleration y (m/s^2)","Linear Acceleration z (m/s^2)"
0.000000000E0,-3.120073080E-1,9.747283161E-2,-2.037448883E-1
2.000000000E-3,-5.929204226E-1,2.074681669E-1,-1.480846405E-1
1.199950000E-2,-5.929204226E-1,2.074681669E-1,-1.480846405E-1
2.199883300E-2,-7.734526396E-1,2.758782506E-1,-1.071453094E-1
3.199833300E-2,-7.750588655E-1,2.742465734E-1,-1.067924500E-1
4.199773300E-2,-7.756985426E-1,2.726972103E-1,-1.066637039E-1
5.199723300E-2,-7.755981684E-1,2.710152566E-1,-1.067085266E-1
6.199680400E-2,-7.744587660E-1,2.688767314E-1,-1.070032120E-1
7.199617900E-2,-7.736579180E-1,2.666645050E-1,-1.072177887E-1
8.199540100E-2,-7.736920118E-1,2.641171813E-1,-1.072416306E-1
9.199470100E-2,-7.742432356E-1,2.612031698E-1,-1.071491241E-1
1.019938820E-1,-7.756813765E-1,2.586016357E-1,-1.068449020E-1
1.119930480E-1,-7.772456408E-1,2.559042871E-1,-1.065111160E-1
1.219922780E-1,-7.785888910E-1,2.533889413E-1,-1.062259674E-1
1.319915630E-1,-7.793580294E-1,2.513334751E-1,-1.060705185E-1
1.419908960E-1,-7.796016932E-1,2.493588775E-1,-1.060342789E-1
1.519902080E-1,-7.791074514E-1,2.471594661E-1,-1.061725616E-1
1.619895600E-1,-7.787877321E-1,2.446558774E-1,-1.062736511E-1
1.719889480E-1,-7.784904242E-1,2.420372367E-1,-1.063709259E-1
1.819882630E-1,-7.785135508E-1,2.391863763E-1,-1.063928604E-1
1.919875130E-1,-7.789620161E-1,2.363344878E-1,-1.063156128E-1
2.019867980E-1,-7.793513536E-1,2.335970998E-1,-1.062498093E-1
2.119860250E-1,-7.796181440E-1,2.312349677E-1,-1.062088013E-1
2.219851980E-1,-7.357102633E-1,7.002704591E-2,-1.164369583E-1
2.319844060E-1,-6.952553988E-1,-7.494051754E-2,-1.233501434E-1
2.419835660E-1,-6.578572989E-1,-2.057808489E-1,-1.277484894E-1
2.519826810E-1,-6.229156256E-1,-3.239047527E-1,-1.303119659E-1
2.619818290E-1,-5.909558535E-1,-4.306695461E-1,-1.313457489E-1
2.719809360E-1,-5.620080233E-1,-5.274546742E-1,-1.311559677E-1
2.819800730E-1,-5.369200706E-1,-6.152580380E-1,-1.298189163E-1
2.919791730E-1,-5.156565905E-1,-6.946415305E-1,-1.275682449E-1
3.022448730E-1,-4.975647926E-1,-7.664176822E-1,-1.246938705E-1
3.122439390E-1,-4.816410542E-1,-8.312302828E-1,-1.215229034E-1
3.222429720E-1,-4.675842524E-1,-8.888618350E-1,-1.182899475E-1
3.322419380E-1,-4.548991919E-1,-9.403664470E-1,-1.151123047E-1
3.422409380E-1,-4.431788921E-1,-9.864216447E-1,-1.120958328E-1
3.522398710E-1,-4.318300486E-1,-1.027631640E0,-1.093654633E-1
3.622387370E-1,-4.206342697E-1,-1.065297008E0,-1.068630219E-1
3.722376700E-1,-9.920942783E-2,2.793669701E-1,-1.451225281E-1
3.822366030E-1,-8.779346943E-2,1.972231865E-1,-1.450595856E-1
3.922355360E-1,-6.085383892E-2,1.297624111E-1,-1.617746353E-1
4.022344690E-1,-6.432175636E-2,7.765126228E-2,-1.929092407E-1
4.122333690E-1,-1.126831770E-1,3.595113754E-2,-2.312650681E-1
4.222322690E-1,-1.001386642E-1,7.898497581E-2,-2.841539383E-1
4.322311020E-1,-1.271448135E-1,1.505306959E-1,-3.370819092E-1
4.422298680E-1,-1.257978678E-1,2.091876268E-1,-3.542089462E-1
4.522286680E-1,-1.166683435E-1,2.853276730E-1,-2.805519104E-1
4.622274010E-1,-5.386912823E-2,3.128268719E-1,-2.500438690E-1
4.722261670E-1,-2.439332008E-2,3.001579046E-1,-2.120800018E-1
4.822249000E-1,-1.202392578E-2,2.885032892E-1,-2.360544205E-1
4.922236660E-1,-2.016699314E-2,2.827910185E-1,-2.978448868E-1
5.022223660E-1,-2.507078648E-2,2.356406450E-1,-2.897453308E-1
5.122211320E-1,-4.071772099E-2,1.793277264E-1,-2.718667984E-1
5.222198980E-1,-5.418920517E-2,1.291434765E-1,-2.493305206E-1
5.322186640E-1,-6.786179543E-2,5.421829224E-2,-2.174043655E-1
5.422174300E-1,-5.957305431E-2,2.670586109E-2,-2.241525650E-1
5.522161960E-1,-3.924286366E-2,1.339328289E-2,-2.121095657E-1
5.622149620E-1,-3.824591637E-2,2.573716640E-2,-2.433986664E-1
5.722137280E-1,-3.505933285E-2,2.786004543E-2,-2.533864975E-1
5.822124280E-1,-4.586267471E-2,5.271184444E-2,-2.540616989E-1
5.922111940E-1,-6.501936913E-2,6.895267963E-2,-2.575235367E-1
6.022099600E-1,-4.256379604E-2,8.375060558E-2,-2.158288956E-1
6.122086600E-1,-4.305672646E-2,6.329929829E-2,-2.175331116E-1
6.222074260E-1,-4.611122608E-2,4.338800907E-2,-2.480239868E-1
6.322063920E-1,-4.735863209E-2,1.688289642E-2,-2.306184769E-1
6.422051580E-1,-5.614447594E-2,7.609248161E-3,-2.443494797E-1
6.522039240E-1,-5.129516125E-2,-2.724063396E-2,-2.245521545E-1
6.622026900E-1,-2.972590923E-2,-4.927170277E-2,-2.336273193E-1
6.722014560E-1,-3.495669365E-2,-8.728981018E-2,-1.828908920E-1
6.822001890E-1,-4.257118702E-2,-1.118410826E-1,-1.659412384E-1
6.921988550E-1,-5.232131481E-2,-1.306700706E-1,-1.683597565E-1
7.021976210E-1,-5.460953712E-2,-1.292531490E-1,-1.686306000E-1
7.121963870E-1,-7.366073132E-2,-9.850585461E-2,-1.785831451E-1
7.221950870E-1,-4.437816143E-2,-9.619009495E-2,-2.126159668E-1
7.321938530E-1,-4.119682312E-2,-5.322265625E-2,-2.466850281E-1
7.421926190E-1,-7.296800613E-3,-1.293206215E-2,-2.734422684E-1
7.521913190E-1,6.913423538E-3,-1.893281937E-3,-2.784576416E-1
7.621900850E-1,3.754591942E-2,1.805591583E-2,-2.569532394E-1
7.721887510E-1,3.145539761E-2,8.674025536E-3,-2.304000854E-1
7.821875170E-1,5.639791489E-4,1.598036289E-2,-1.988821030E-1
7.921862500E-1,-1.036787033E-2,1.454472542E-3,-2.009878159E-1
8.021849830E-1,-6.375300884E-2,-2.514970303E-2,-1.888322830E-1
8.121837160E-1,-9.941184521E-2,-4.942107201E-2,-1.984024048E-1
8.221824160E-1,-1.297218800E-1,-5.678331852E-2,-2.128925323E-1
8.321810820E-1,-1.280627251E-1,-4.483497143E-2,-1.868705750E-1
8.421798150E-1,-1.237143278E-1,-5.685234070E-2,-2.039976120E-1
8.521785480E-1,-8.807325363E-2,-3.504097462E-2,-2.068452835E-1
8.621772140E-1,-6.698560715E-2,-3.029286861E-2,-2.000255585E-1
8.721759470E-1,-4.437398911E-2,-2.577471733E-2,-2.265176773E-1
8.821746800E-1,-2.216541767E-2,-2.636456490E-2,-2.313289642E-1
8.921734130E-1,-2.679467201E-2,-3.165543079E-2,-2.193002701E-1
9.021721790E-1,-2.388966084E-2,-6.320810318E-2,-2.312946320E-1
9.121709450E-1,-2.348899841E-2,-6.100654602E-2,-2.337331772E-1
9.221697110E-1,-4.423403740E-2,-8.495414257E-2,-2.410669327E-1
9.321682770E-1,-9.364581108E-2,-6.939113140E-2,-2.151060104E-1
9.421669770E-1,-7.065868378E-2,-4.869604111E-2,-2.300157547E-1
9.521657430E-1,-8.368229866E-2,-3.514015675E-2,-2.185783386E-1
9.621645090E-1,-7.802081108E-2,-2.435040474E-2,-2.333221436E-1
9.721632090E-1,-6.309390068E-2,-2.139067650E-2,-1.928253174E-1
9.821620090E-1,-3.174412251E-2,-2.610456944E-2,-1.785154343E-1
9.921608090E-1,-4.146993160E-2,-1.448559761E-2,-1.784257889E-1
1.002159509E0,-4.145395756E-2,-3.412830830E-2,-2.022867203E-1
1.012158275E0,-4.850482941E-2,-2.257978916E-2,-2.118148804E-1
1.022157008E0,-3.797984123E-2,-3.276276588E-2,-2.214660645E-1
1.032155741E0,-2.489352226E-2,-2.136671543E-2,-2.191839218E-1
1.042154507E0,-3.107047081E-2,-5.085420609E-2,-2.431850433E-1
1.052153273E0,-3.088319302E-2,-4.844117165E-2,-2.575893402E-1
1.062152039E0,-2.808165550E-2,-4.838502407E-2,-2.600708008E-1
1.072150805E0,-2.876698971E-2,-4.373359680E-2,-2.431564331E-1
1.082149505E0,-2.782213688E-2,-4.135823250E-2,-2.261180878E-1
1.092148271E0,-2.975666523E-2,-5.326569080E-2,-2.329435349E-1
1.102147037E0,-3.687751293E-2,-2.429282665E-2,-2.229642868E-1
1.112145703E0,-3.447985649E-2,-3.170406818E-2,-2.272558212E-1
1.122144503E0,-2.255415916E-2,-2.958846092E-2,-2.219524384E-1
1.132143269E0,-3.188979626E-2,-2.036631107E-2,-2.118997574E-1
1.142142035E0,-3.380453587E-2,-1.305115223E-2,-2.307119370E-1
1.152140801E0,-3.529214859E-2,-3.298938274E-2,-2.302885056E-1
1.162139567E0,-6.082665920E-2,-3.267014027E-2,-2.611646652E-1
1.172138333E0,-1.005162001E-1,-4.537427425E-2,-2.823200226E-1
1.182137133E0,-1.162465811E-1,-6.763505936E-2,-3.034801483E-1
1.192135966E0,-1.325043440E-1,-7.552981377E-2,-3.460884094E-1
1.202134832E0,-1.066991091E-1,-6.424725056E-2,-3.789234161E-1
1.212133765E0,-7.742905617E-2,-6.543540955E-2,-3.707103729E-1
1.222132665E0,-3.762960434E-2,-6.427013874E-2,-3.430547714E-1
1.232131598E0,-2.722346783E-2,-9.217655659E-2,-3.070907593E-1
1.242130564E0,-1.248776913E-2,-8.904576302E-2,-2.303037643E-1
1.252129564E0,-2.124440670E-2,-8.618652821E-2,-1.655139923E-1
1.262128597E0,-1.437306404E-2,-6.676638126E-2,-9.613704681E-2
1.272127630E0,-1.500856876E-2,-5.202722549E-2,-5.112552643E-2
1.282126663E0,-1.407706738E-2,-2.273762226E-2,-5.433750153E-2
1.292125729E0,-6.902456284E-3,-4.701972008E-3,-7.712078094E-2
1.302124962E0,3.611207008E-3,-5.093097687E-3,-1.074008942E-1
1.312123995E0,-2.955436707E-3,7.091999054E-3,-1.257524490E-1
1.322123095E0,-5.579948425E-3,2.898216248E-3,-1.272373199E-1
1.332122128E0,7.737517357E-3,1.374518871E-2,-1.262807846E-1
1.342121161E0,1.443648338E-2,2.468693256E-2,-1.422100067E-1
1.352120227E0,-4.777550697E-3,2.505064011E-2,-1.575565338E-1
1.362119227E0,-1.048994064E-2,2.043485641E-2,-1.564178467E-1
1.372118293E0,5.051875114E-2,1.319003105E-2,-2.035465240E-1
1.382117359E0,-1.693104506E-1,-7.059097290E-2,-2.079381943E-1
1.392116425E0,-1.988471746E-1,-9.178960323E-2,-2.245941162E-1
1.402115491E0,-1.841845512E-1,-7.896375656E-2,-2.439613342E-1
1.412114591E0,-1.399066448E-1,-5.172777176E-2,-2.491512299E-1
1.422113691E0,-5.755901337E-2,-6.297802925E-2,-2.542610168E-1
1.432112757E0,1.205468178E-2,-5.266797543E-2,-2.376680374E-1
1.442111757E0,4.436635971E-2,-2.985250950E-2,-2.280664444E-1
1.452110823E0,4.739117622E-2,-1.448178291E-2,-2.135152817E-1
1.462109889E0,5.487012863E-2,-4.241347313E-3,-2.084121704E-1
1.472108889E0,3.793776035E-2,-1.582574844E-2,-2.103462219E-1
1.482107922E0,1.346361637E-2,-8.428454399E-3,-2.025976181E-1
1.492106855E0,-4.647970200E-3,1.293134689E-2,-2.041845322E-1
1.502105788E0,7.445335388E-3,1.201856136E-2,-2.317876816E-1
1.512104654E0,-3.338813782E-3,1.538753510E-2,-2.494440079E-1
1.522103487E0,1.720309258E-3,2.530527115E-2,-2.284851074E-1
1.532102353E0,1.588165760E-2,2.505707741E-2,-2.504129410E-1
1.542101186E0,1.325690746E-2,7.998704910E-3,-2.292242050E-1
1.552099919E0,2.962648869E-2,5.709648132E-3,-1.865167618E-1
1.562098685E0,3.484010696E-2,-3.384947777E-3,-1.751670837E-1
1.572097451E0,1.687479019E-2,-2.149927616E-2,-1.592864990E-1
1.582096151E0,-1.653289795E-2,-2.693140507E-2,-1.150779724E-1
1.592094884E0,-2.719712257E-2,-3.411126137E-2,-1.263065338E-1
1.602093450E0,-5.845129490E-2,-6.037557125E-2,-1.018371582E-1
1.612092150E0,-9.100782871E-2,-7.172262669E-2,-9.924697876E-2
1.622090883E0,-7.727360725E-2,-7.073128223E-2,-1.184444427E-1
1.632089649E0,-5.325043201E-2,-7.188177109E-2,-1.330480576E-1
1.642088449E0,-5.304443836E-2,-8.709931374E-2,-1.381549835E-1
1.652087215E0,-6.685817242E-2,-9.221041203E-2,-1.601915359E-1
1.662085981E0,-7.063412666E-2,-8.470225334E-2,-2.039871216E-1
1.672084747E0,-5.721747875E-2,-8.648002148E-2,-2.144079208E-1
1.682083513E0,-6.034469604E-2,-9.985888004E-2,-2.273330688E-1
1.692082213E0,-5.141758919E-2,-9.109449387E-2,-2.212247849E-1
1.702080979E0,-4.979753494E-2,-1.015771627E-1,-1.983108521E-1
1.712079745E0,-1.445031166E-2,-1.044008732E-1,-1.851005554E-1
1.722078411E0,-1.119613647E-3,-8.093857765E-2,-1.454410553E-1
1.732077177E0,-9.432554245E-3,-6.948423386E-2,-1.296958923E-1
1.742075943E0,3.746271133E-3,-6.071090698E-2,-1.234655380E-1
1.752074709E0,2.120828629E-2,-4.981565475E-2,-1.338367462E-1
1.762073475E0,-1.692056656E-2,-4.204499722E-2,-1.631240845E-1
1.772072241E0,-1.186418533E-2,-1.575875282E-2,-1.540098190E-1
1.782071041E0,-2.373254299E-2,-1.168918610E-2,-1.782627106E-1
1.792069841E0,-3.746664524E-2,1.336050034E-2,-1.833782196E-1
1.802068541E0,-1.706385612E-2,1.847422123E-2,-2.172193527E-1
1.812067307E0,-3.702378273E-2,3.480398655E-2,-2.198753357E-1
1.822066073E0,-4.186534882E-2,3.630578518E-2,-2.561311722E-1
1.832064773E0,-3.442192078E-2,2.537369728E-2,-2.564582825E-1
1.842063539E0,-2.459776402E-2,1.444745064E-2,-2.424182892E-1
1.852062305E0,-2.948498726E-2,1.123857498E-2,-2.092409134E-1
1.862061005E0,-6.188511848E-3,1.804029942E-2,-1.233510971E-1
1.872059805E0,8.841395378E-3,1.318395138E-2,-1.091127396E-1
1.882058571E0,-2.925872803E-2,1.054811478E-2,-8.995914459E-2
1.892057337E0,-5.302107334E-2,-1.141488552E-2,-7.556152344E-2
1.902056103E0,-6.735408306E-2,-3.334343433E-2,-1.233882904E-1
1.912054869E0,-5.549442768E-2,-8.160936832E-2,-1.352682114E-1
1.922053635E0,-3.930819035E-2,-7.386052608E-2,-1.520051956E-1
1.932052368E0,-3.071320057E-2,-6.814432144E-2,-1.806907654E-1
1.942051034E0,-3.131985664E-2,-5.980670452E-2,-1.951303482E-1
1.952049767E0,-4.816305637E-2,-7.031345367E-2,-2.169132233E-1
1.962048500E0,-6.661736965E-2,-7.561433315E-2,-2.149925232E-1
1.972047166E0,-6.006109715E-2,-9.230959415E-2,-1.918458939E-1
1.982045899E0,-8.372747898E-2,-7.953047752E-2,-2.001419067E-1
1.992044632E0,-8.510303497E-2,-7.369685173E-2,-1.894788742E-1
2.002043365E0,-1.053164005E-1,-7.463347912E-2,-1.909217834E-1
2.012042098E0,-1.300128698E-1,-6.830012798E-2,-1.804685593E-1
2.022040864E0,-1.205494404E-1,-5.035829544E-2,-1.772661209E-1
2.032039630E0,-1.014814377E-1,-5.642759800E-2,-1.716585159E-1
2.042038396E0,-1.257728338E-1,-4.888713360E-2,-1.778354645E-1
2.052037096E0,-1.072859764E-1,-3.004503250E-2,-1.646776199E-1
2.062035862E0,-9.611046314E-2,-4.285395145E-2,-1.633729935E-1
2.072034628E0,-6.172120571E-2,-2.249813080E-2,-1.762199402E-1
2.082033294E0,-4.747807980E-2,-3.884756565E-2,-1.480264664E-1
2.092032027E0,-4.067158699E-2,-1.443684101E-2,-1.533088684E-1
2.102030793E0,-1.723837852E-2,-2.295851707E-3,-1.369657516E-1
2.112029493E0,-2.500891685E-2,-2.475500107E-3,-1.444892883E-1
2.122028259E0,-3.978729248E-2,-2.636265755E-2,-1.568765640E-1
2.132027025E0,-4.193794727E-2,-3.834462166E-2,-1.669921875E-1
2.142025791E0,-3.671336174E-2,-5.217266083E-2,-1.987867355E-1
2.152024557E0,-4.364490509E-2,-6.583869457E-2,-1.994447708E-1
2.162023323E0,-6.252276897E-2,-5.793464184E-2,-1.929302216E-1
2.172022056E0,-6.945049763E-2,-6.150364876E-2,-2.008581161E-1
2.182020822E0,-5.746626854E-2,-6.545710564E-2,-2.182474136E-1
2.192019522E0,-7.535541058E-2,-7.633161545E-2,-2.282676697E-1
2.202018288E0,-6.042957306E-2,-6.799459457E-2,-2.309684753E-1
2.212017054E0,-5.079758167E-2,-7.341158390E-2,-2.264890671E-1
2.222015754E0,-6.318461895E-2,-5.932140350E-2,-2.123947144E-1
2.232014520E0,-3.045737743E-2,-5.705928802E-2,-1.886701584E-1
2.242013286E0,-5.085861683E-2,-4.249465466E-2,-1.840629578E-1
2.252012052E0,-2.797877789E-2,-3.991663456E-2,-1.746997833E-1
2.262010852E0,-3.413271904E-2,-1.612126827E-2,-1.676149368E-1
2.272009652E0,-3.311455250E-2,-7.242679596E-3,-1.532516479E-1
2.282008452E0,-2.921795845E-2,-8.619666100E-3,-1.388740540E-1
2.292007285E0,-1.810586452E-2,-1.788532734E-2,-1.387500763E-1
2.302006118E0,-1.734852791E-2,-2.455031872E-2,-1.361074448E-1
2.312005018E0,-2.063786983E-2,-3.404128551E-2,-1.550951004E-1
2.322003884E0,7.511854172E-3,-2.649641037E-2,-1.741895676E-1
2.332002684E0,-1.209604740E-2,-3.334546089E-2,-1.837301254E-1
2.342001550E0,2.284038067E-2,-2.597367764E-2,-1.668024063E-1
2.352000416E0,3.344643116E-2,-8.854150772E-3,-1.665830612E-1
2.361999216E0,6.047356129E-2,3.206133842E-3,-1.806144714E-1
2.371998082E0,4.590845108E-2,4.986643791E-3,-1.751918793E-1
2.381996948E0,5.544018745E-2,2.040660381E-2,-1.888351440E-1
2.391995814E0,7.660448551E-2,1.355767250E-2,-1.735544205E-1
2.401994680E0,8.598148823E-2,1.594901085E-2,-1.414957047E-1
2.411993546E0,1.174976826E-1,5.660772324E-3,-1.190147400E-1
2.421992412E0,8.086919785E-2,-1.235592365E-2,-1.254377365E-1
2.431991278E0,1.249262094E-1,-6.375861168E-2,-3.046150208E-1
2.441990078E0,-4.850399494E-2,-6.323933601E-3,-2.154712677E-1
2.451988944E0,-2.507089376E-1,1.336467266E-2,-2.197771072E-1
2.461987810E0,-3.953472376E-1,3.962278366E-2,-1.737060547E-1
2.471986610E0,-4.790757895E-1,3.144836426E-2,-1.463527679E-1
2.481985476E0,-4.284738302E-1,-4.276752472E-3,-1.758127213E-1
2.491984342E0,-3.492938280E-1,-2.510666847E-2,-1.832990646E-1
2.501983208E0,-2.588170767E-1,-3.967177868E-2,-1.784477234E-1
2.511982074E0,-1.684322357E-1,-1.004014015E-1,-1.398706436E-1
2.521980940E0,-9.657597542E-2,-1.126602888E-1,-1.632909775E-1
2.531979806E0,-7.102167606E-2,-1.081132889E-1,-1.769790649E-1
2.541978672E0,-5.274856091E-2,-1.375256777E-1,-1.977529526E-1
2.551977472E0,-4.365766048E-2,-1.072562933E-1,-2.161817551E-1
2.561976305E0,-5.062997341E-2,-1.064625978E-1,-2.274408340E-1
2.571975138E0,-6.166517735E-2,-6.548678875E-2,-2.124176025E-1
2.581973904E0,-8.640563488E-2,-5.671894550E-2,-2.117080688E-1
2.591972704E0,-1.036965847E-1,-3.615868092E-2,-1.846837997E-1
2.601971437E0,-1.351528168E-1,-3.462815285E-2,-1.720857620E-1
2.611970103E0,-1.281745434E-1,-2.335608006E-2,-1.475687027E-1
2.621968836E0,-1.211245060E-1,-3.323686123E-2,-1.351032257E-1
2.631967569E0,-9.258854389E-2,-5.236482620E-2,-1.059236526E-1
2.641966302E0,-8.573770523E-2,-8.071672916E-2,-1.031141281E-1
2.651965068E0,-1.218414307E-1,-1.018784046E-1,-1.146993637E-1
2.661963834E0,-1.683387756E-1,-1.493276358E-1,-1.428871155E-1
2.671962600E0,-1.834926605E-1,-1.430580616E-1,-1.663980484E-1
2.681961366E0,-1.727738380E-1,-1.153589487E-1,-1.826066971E-1
2.691960066E0,-1.182790995E-1,-7.897984982E-2,-1.815519333E-1
2.701958832E0,-6.795072556E-2,8.825540543E-3,-2.062616348E-1
2.711957598E0,-1.991260052E-2,6.112301350E-2,-2.229871750E-1
2.721956331E0,2.157342434E-2,1.255602837E-1,-2.581291199E-1
2.731955097E0,2.022838593E-2,1.779599190E-1,-2.493219376E-1
2.741953863E0,4.566895962E-2,2.095714808E-1,-2.206134796E-1
2.751952629E0,3.393042088E-2,2.105568647E-1,-2.544622421E-1
2.761951395E0,7.914292812E-2,2.214378119E-1,-2.648000717E-1
2.771950161E0,6.584811211E-2,1.825582981E-1,-2.587385178E-1
2.781948927E0,3.037917614E-2,1.613970995E-1,-2.627792358E-1
2.791947693E0,-4.862546921E-4,9.537804127E-2,-2.458314896E-1
2.801946393E0,-1.409769058E-2,2.765405178E-2,-2.506532669E-1
2.811945159E0,3.302454948E-3,-3.309452534E-2,-2.410497665E-1
2.821943925E0,4.098117352E-2,-1.016280651E-1,-2.526311874E-1
2.831942625E0,5.905222893E-2,-9.321224689E-2,-2.378416061E-1
2.841941391E0,2.856814861E-2,-1.181857586E-1,-2.277259827E-1
2.851940157E0,4.531383514E-3,-1.501685381E-1,-2.031240463E-1
2.861938857E0,-4.606056213E-2,-1.541705132E-1,-1.701831818E-1
2.871937623E0,-8.664035797E-2,-1.511291265E-1,-1.616649628E-1
2.881936389E0,-9.662461281E-2,-1.321998835E-1,-1.418228149E-1
2.891935155E0,-9.848201275E-2,-9.332931042E-2,-1.055498123E-1
2.901933921E0,-1.138942242E-1,-4.951810837E-2,-1.029891968E-1
2.911932687E0,-1.090250015E-1,-2.066004276E-2,-7.661342621E-2
2.921931453E0,-9.818768501E-2,9.219408035E-3,-1.292533875E-1
2.931930219E0,-6.529247761E-2,4.712498188E-2,-1.625738144E-1
2.941928919E0,-3.695309162E-2,6.908833981E-2,-2.100324631E-1
2.951927685E0,-2.579355240E-2,1.091223955E-1,-2.093267441E-1
2.961926418E0,3.022611141E-2,1.119008064E-1,-2.082529068E-1
2.971925084E0,4.526376724E-2,9.960103035E-2,-1.710777283E-1
2.981923817E0,4.258573055E-2,1.035367250E-1,-1.910715103E-1
2.991922550E0,8.339762688E-3,7.069408894E-2,-1.892662048E-1
3.001921283E0,-1.945531368E-2,7.090163231E-2,-2.542581558E-1
3.011920049E0,-8.972764015E-3,6.322622299E-2,-3.023509979E-1
3.021918749E0,-1.115906239E-2,7.907974720E-2,-2.688083649E-1
3.031917482E0,1.303792000E-2,3.722763062E-2,-2.136726379E-1
3.041916215E0,4.020035267E-2,3.365385532E-2,-2.113161087E-1
3.051914881E0,9.351587296E-2,1.117515564E-2,-2.209281921E-1
3.061913614E0,9.334349632E-2,2.725517750E-2,-2.256174088E-1
3.071912380E0,7.436442375E-2,1.544022560E-2,-2.377071381E-1
3.081911080E0,4.374098778E-2,1.889550686E-2,-2.380542755E-1
3.091909846E0,-9.036064148E-4,-7.735252380E-3,-2.314796448E-1
3.101908612E0,-3.734660149E-2,-2.582740784E-2,-2.157945633E-1
3.111907312E0,-5.414342880E-2,-4.967784882E-2,-2.004785538E-1
3.121906078E0,-6.554794312E-2,-6.323516369E-2,-1.662712097E-1
3.131904844E0,-8.157420158E-2,-7.605743408E-2,-1.442060471E-1
3.141903610E0,-8.909153938E-2,-1.001324654E-1,-1.273498535E-1
3.151902376E0,-1.220046282E-1,-9.693884850E-2,-1.467838287E-1
3.161901142E0,-1.421800852E-1,-1.054918766E-1,-1.281166077E-1
3.171899908E0,-1.348847151E-1,-8.717572689E-2,-1.696462631E-1
3.181898674E0,-1.122264862E-1,-8.058989048E-2,-1.922817230E-1
3.191897374E0,-8.934724331E-2,-6.435286999E-2,-1.886367798E-1
3.201896140E0,-7.835876942E-2,-7.152295113E-2,-1.994733810E-1
3.211894906E0,-6.740105152E-2,-3.545844555E-2,-1.959619522E-1
3.221893606E0,-4.013121128E-2,-2.361929417E-2,-1.803283691E-1
3.231892372E0,-1.885414124E-3,-1.955604553E-2,-1.954975128E-1
3.241891138E0,5.900144577E-3,-6.327152252E-3,-1.982517242E-1
3.251889871E0,2.189874649E-2,1.608419418E-2,-1.958560944E-1
3.261888637E0,1.507067680E-2,6.816983223E-3,-1.978750229E-1
3.271887403E0,1.453995705E-2,1.361417770E-2,-2.163362503E-1
3.281886169E0,1.094746590E-2,2.745008469E-2,-2.370233536E-1
3.291884935E0,-1.520729065E-2,3.812623024E-2,-2.429828644E-1
3.301883635E0,-5.150079727E-3,1.033544540E-2,-2.465820312E-1
3.311882368E0,9.851932526E-3,8.613705635E-3,-2.238254547E-1
3.321881168E0,1.546430588E-2,1.897060871E-2,-2.154912949E-1
3.331880001E0,-3.605234623E-2,1.485884190E-2,-1.928424835E-1
3.341878901E0,-4.990839958E-2,-2.760517597E-2,-1.801366806E-1
3.351877867E0,-5.800747871E-2,-3.351902962E-2,-1.773366928E-1
3.361876800E0,-1.060250998E-1,-8.450853825E-2,-1.675977707E-1
3.371875766E0,-1.197674274E-1,-9.131050110E-2,-1.534376144E-1
3.381874799E0,-1.085629463E-1,-9.238338470E-2,-1.755828857E-1
3.391873799E0,-9.000480175E-2,-7.130968571E-2,-2.050580978E-1
3.401872865E0,-1.050040722E-1,-9.536242485E-2,-1.747369766E-1
3.411871931E0,-6.713628769E-2,-8.304655552E-2,-1.852416992E-1
3.421870997E0,-5.076491833E-2,-7.760846615E-2,-1.982069016E-1
3.431870097E0,-3.236651421E-2,-7.463657856E-2,-1.751651764E-1
3.441869097E0,-3.128314018E-2,-6.916797161E-2,-1.544160843E-1
3.451868163E0,-2.525103092E-2,-7.329368591E-2,-1.672172546E-1
3.461867196E0,-3.615355492E-2,-6.782102585E-2,-1.704063416E-1
3.471866196E0,-3.498029709E-2,-6.992590427E-2,-1.831216812E-1
3.481865262E0,-5.568885803E-2,-7.226145267E-2,-2.029047012E-1
3.491864328E0,-4.537904263E-2,-8.655643463E-2,-2.130899429E-1
3.501863394E0,-2.603220940E-2,-1.033638716E-1,-2.231359482E-1
3.511862460E0,9.327888489E-3,-8.640575409E-2,-1.995487213E-1
3.521861526E0,1.021027565E-2,-9.564042091E-2,-1.757812500E-1
3.531860592E0,5.362749100E-3,-7.075214386E-2,-1.614980698E-1
3.541859658E0,-8.665323257E-3,-4.586625099E-2,-1.688461304E-1
3.551858658E0,-5.584025383E-2,-4.090738297E-2,-1.450071335E-1
3.561857724E0,-9.482216835E-2,-3.396010399E-2,-1.596202850E-1
3.571856790E0,-9.911453724E-2,-1.562893391E-2,-1.935300827E-1
3.581855790E0,-9.587013721E-2,-1.481938362E-2,-1.866760254E-1
3.591854856E0,-9.024298191E-2,-9.829640388E-3,-1.988639832E-1
3.601853922E0,-6.477129459E-2,3.295278549E-2,-1.991338730E-1
3.611852922E0,-4.667747021E-2,4.623782635E-2,-2.327442169E-1
3.621851955E0,-2.449476719E-2,6.357455254E-2,-2.397346497E-1
3.631850888E0,-1.236295700E-2,3.680884838E-2,-2.296800613E-1
3.641849821E0,-4.867494106E-2,1.478505135E-2,-2.123146057E-1
3.651848687E0,-3.480017185E-2,-2.561330795E-3,-2.164564133E-1
3.661847520E0,-2.354240417E-2,-2.200365067E-2,-2.014503479E-1
3.671846353E0,-3.873705864E-2,-5.574119091E-2,-2.151632309E-1
3.681845119E0,-4.155838490E-2,-5.988657475E-2,-1.979913712E-1
3.691843852E0,-4.905617237E-2,-3.499948978E-2,-2.072353363E-1
3.701842585E0,-3.909492493E-2,-4.296302795E-2,-1.928100586E-1
3.711841318E0,-5.311369896E-2,-5.045270920E-2,-2.047986984E-1
3.721839984E0,-3.373658657E-2,-5.501413345E-2,-1.977062225E-1
3.731838684E0,-3.373777866E-2,-6.664729118E-2,-1.810073853E-1
3.741837417E0,-2.961730957E-2,-4.163932800E-2,-1.882410049E-1
3.751836150E0,-3.757798672E-2,-4.792666435E-2,-1.858444214E-1
3.761834916E0,-9.873151779E-3,-3.493404388E-2,-1.427135468E-1
3.771833649E0,-2.725625038E-2,-4.837596416E-2,-1.642980576E-1
3.781832382E0,-2.999341488E-2,-6.164252758E-2,-1.740016937E-1
3.791831148E0,-4.698932171E-2,-6.501817703E-2,-1.909685135E-1
3.801829848E0,-5.905318260E-2,-5.393087864E-2,-1.960115433E-1
3.811828614E0,-6.571745872E-2,-5.230629444E-2,-1.964187622E-1
3.821827380E0,-5.003559589E-2,-4.844200611E-2,-2.089395523E-1
3.831826080E0,-4.915249348E-2,-4.756772518E-2,-1.997108459E-1
3.841824846E0,-6.280064583E-2,-5.098140240E-2,-2.001132965E-1
3.851823612E0,-6.725502014E-2,-3.082180023E-2,-1.883955002E-1
3.861822312E0,-3.618204594E-2,-3.697431087E-2,-2.196960449E-1
3.871821078E0,-4.373538494E-2,-3.118085861E-2,-2.245874405E-1
3.881819844E0,-2.556586266E-2,-2.579927444E-2,-1.885700226E-1
3.891818610E0,-1.934266090E-2,-2.990782261E-2,-1.956710815E-1
3.901817376E0,-3.938043118E-2,-2.959024906E-2,-1.739902496E-1
3.911816142E0,-4.210138321E-2,-4.065072536E-2,-1.692962646E-1
3.921814908E0,-3.694665432E-2,-4.733407497E-2,-1.981964111E-1
3.931813674E0,-6.732261181E-2,-2.293050289E-2,-1.649208069E-1
3.941812374E0,-4.964554310E-2,-3.708600998E-2,-2.154350281E-1
3.951811140E0,-5.666160583E-2,-2.959883213E-2,-2.107372284E-1
3.961809906E0,-6.372213364E-2,-3.432059288E-2,-2.011985779E-1
3.971808606E0,-7.805442810E-2,-4.374551773E-2,-2.060213089E-1
3.981807372E0,-3.256917000E-2,-3.602993488E-2,-1.797790527E-1
3.991806138E0,-3.821218014E-2,-3.080296516E-2,-1.820697784E-1
4.001804904E0,-4.155635834E-2,-4.729247093E-2,-1.867036819E-1
4.011803670E0,-5.660605431E-2,-4.460775852E-2,-2.057628632E-1
4.021802436E0,-4.717171192E-2,-1.074302197E-2,-2.105836868E-1
4.031801202E0,-3.498125076E-2,-1.221418381E-3,-2.058315277E-1
4.041799968E0,-2.283048630E-2,-2.298176289E-2,-1.794948578E-1
4.051798668E0,-2.027201653E-2,-1.567947865E-2,-1.843404770E-1
4.061797434E0,-3.970301151E-2,-8.598089218E-3,-1.866569519E-1
4.071796200E0,-4.407989979E-2,-4.234290123E-2,-1.795215607E-1
4.081794900E0,-5.591249466E-2,-3.991508484E-2,-1.795568466E-1
4.091793633E0,-1.700711250E-2,-5.416500568E-2,-2.108325958E-1
4.101792366E0,-1.472067833E-2,-4.628837109E-2,-2.013568878E-1
4.111791032E0,3.654646873E-2,-4.550766945E-2,-1.748590469E-1
4.121789765E0,1.730895042E-2,-4.202234745E-2,-1.481876373E-1
4.131788498E0,-3.799200058E-3,-1.916527748E-2,-1.719455719E-1
4.141787231E0,-4.856634140E-2,-1.586771011E-2,-1.861143112E-1
4.151785964E0,-7.277798653E-2,-3.196120262E-2,-2.268800735E-1
4.161784697E0,-9.128010273E-2,-3.616333008E-2,-2.175483704E-1
4.171783430E0,-7.040929794E-2,-2.575528622E-2,-2.372207642E-1
4.181782163E0,-7.809984684E-2,-1.575887203E-2,-2.041816711E-1
4.191780863E0,-3.010213375E-2,-1.535975933E-2,-2.215509415E-1
4.201779629E0,-2.576947212E-2,-5.342721939E-3,-2.100734711E-1
4.211778395E0,1.141357422E-2,-2.163350582E-2,-2.224006653E-1
4.221777095E0,3.029632568E-2,-1.136898994E-2,-1.937341690E-1
4.231775861E0,3.139638901E-2,-4.417407513E-2,-2.007694244E-1
4.241774627E0,3.632664680E-2,-3.126823902E-2,-1.884822845E-1
4.251773393E0,5.200386047E-3,-5.914342403E-2,-1.905164719E-1
4.261772159E0,-2.599263191E-2,-6.727862358E-2,-1.998224258E-1
4.271770925E0,-3.490948677E-2,-7.037842274E-2,-1.901750565E-1
4.281769691E0,-6.495141983E-2,-7.326984406E-2,-1.902322769E-1
4.291768457E0,-1.014789343E-1,-7.104659081E-2,-1.689481735E-1
4.301767157E0,-9.855258465E-2,-7.100903988E-2,-1.694965363E-1
4.311765923E0,-1.070066690E-1,-8.534514904E-2,-1.725635529E-1
4.321764689E0,-1.007051468E-1,-9.218537807E-2,-1.757698059E-1
4.331763422E0,-9.378397465E-2,-8.679854870E-2,-1.695756912E-1
4.341762188E0,-8.685815334E-2,-5.480134487E-2,-1.730070114E-1
4.351760954E0,-7.639789581E-2,-7.083773613E-2,-1.766538620E-1
4.361759654E0,-6.363809109E-2,-5.347430706E-2,-1.587095261E-1
4.371758420E0,-8.463680744E-2,-6.494224072E-2,-2.053403854E-1
4.381757186E0,-5.743396282E-2,-6.751453876E-2,-1.800861359E-1
4.400399104E0,-9.286630154E-2,-7.461631298E-2,-1.931037903E-1
4.410397870E0,-8.537697792E-2,-4.580843449E-2,-2.108707428E-1
4.420396670E0,-7.769382000E-2,-4.352760315E-2,-2.070951462E-1
4.430395470E0,-6.091296673E-2,-4.162073135E-2,-2.175168991E-1
4.440394303E0,-5.884635448E-2,-4.037857056E-2,-1.990175247E-1
4.450393136E0,-4.505836964E-2,-3.694677353E-2,-1.900053024E-1
4.460392036E0,-6.074750423E-2,-2.169120312E-2,-2.119350433E-1
4.470390936E0,-3.850078583E-2,-1.861321926E-2,-2.122020721E-1
4.480389769E0,-5.501055717E-2,-1.836085320E-2,-2.075090408E-1
4.490388669E0,-4.995095730E-2,-3.918528557E-3,-2.147626877E-1
4.500387535E0,-5.207467079E-2,-2.085852623E-2,-1.812696457E-1
4.510386401E0,-3.286671638E-2,-2.088320255E-2,-2.004308701E-1
4.520385267E0,-1.603710651E-2,-5.928421021E-2,-1.860637665E-1
4.530384133E0,-2.826333046E-2,-5.858397484E-2,-1.957073212E-1
4.540382999E0,-3.602015972E-2,-5.548620224E-2,-1.789493561E-1
4.550381865E0,-3.935635090E-2,-6.471848488E-2,-1.955699921E-1
4.560380665E0,-7.192838192E-2,-5.896258354E-2,-1.810674667E-1
4.570379531E0,-4.473173618E-2,-5.354118347E-2,-1.808528900E-1
4.580378397E0,-4.643237591E-2,-2.416789532E-2,-1.949691772E-1
4.590377197E0,-5.526316166E-2,-4.750370979E-3,-1.779069901E-1
4.600376063E0,-6.345689297E-2,6.908178329E-3,-1.680612564E-1
4.610374929E0,-5.908632278E-2,4.918563366E-2,-1.630420685E-1
4.620373729E0,-6.590569019E-2,5.923986435E-2,-1.508140564E-1
4.630372595E0,-8.839464188E-2,5.406856537E-2,-1.266956329E-1
4.640371428E0,-6.898534298E-2,3.673398495E-2,-1.578645706E-1
4.650370294E0,-7.026004791E-2,4.093778133E-2,-1.868181229E-1
4.660369160E0,-1.023744345E-1,6.638526917E-3,-1.774864197E-1
4.670368026E0,-1.002870798E-1,-1.049590111E-2,-2.090711594E-1
4.680366892E0,-9.043705463E-2,-3.176796436E-2,-2.217330933E-1
4.690365758E0,-8.844888210E-2,-5.503320694E-2,-2.247438431E-1
4.700364524E0,-4.640412331E-2,-8.489191532E-2,-1.965951920E-1
4.710363390E0,-2.662098408E-2,-1.118398905E-1,-1.588106155E-1
4.720362223E0,1.949906349E-3,-1.019294262E-1,-1.856727600E-1
4.730360989E0,-2.259755135E-2,-1.108976603E-1,-2.077007294E-1
4.740359789E0,-4.292654991E-2,-1.285998821E-1,-2.297582626E-1
4.750358522E0,-2.758133411E-2,-1.357147694E-1,-2.423648834E-1
4.760357255E0,-3.190267086E-2,-1.344962120E-1,-2.550678253E-1
4.770355988E0,-1.558423042E-2,-1.252696514E-1,-2.078657150E-1
4.780354721E0,-2.417552471E-2,-1.010830402E-1,-1.940851212E-1
4.790353454E0,-2.102994919E-2,-6.955301762E-2,-1.515493393E-1
4.800352187E0,-2.514290810E-2,-2.365565300E-2,-1.616687775E-1
4.810350853E0,-1.711034775E-2,-7.501006126E-3,-1.692523956E-1
4.820349586E0,-2.287328243E-2,-6.902217865E-5,-1.862640381E-1
4.830348352E0,-2.098298073E-2,2.077782154E-2,-1.912403107E-1
4.840347052E0,-5.601572990E-2,-3.949403763E-4,-2.178249359E-1
4.850345818E0,-4.786181450E-2,6.513834000E-3,-2.227687836E-1
4.860344584E0,-8.234310150E-2,-1.456618309E-3,-2.468748093E-1
4.870343284E0,-8.224904537E-2,2.212405205E-3,-2.376232147E-1
4.880342050E0,-8.452963829E-2,1.973104477E-2,-2.234954834E-1
4.890340850E0,-7.510781288E-2,8.105754852E-3,-2.116365433E-1
4.900339616E0,-8.048141003E-2,1.542592049E-2,-2.307758331E-1
4.910338382E0,-6.240260601E-2,1.053607464E-2,-1.994915009E-1
4.920337148E0,-3.540837765E-2,2.446913719E-2,-1.943492889E-1
4.930335914E0,-1.870810986E-2,9.352564812E-3,-1.650590897E-1
4.940334680E0,-4.755020142E-3,8.850574493E-3,-1.812305450E-1
4.950333380E0,-5.187511444E-3,-1.307332516E-2,-1.758699417E-1
4.960332146E0,6.718397141E-3,-4.155409336E-2,-2.281570435E-1
4.970330912E0,-2.715587616E-3,-6.721460819E-2,-2.422513962E-1
4.980329612E0,-2.637934685E-2,-5.831658840E-2,-2.589502335E-1
4.990328378E0,-2.822077274E-2,-7.986283302E-2,-2.590646744E-1
5.000327144E0,-2.563846111E-2,-6.476688385E-2,-2.544422150E-1
5.010325910E0,-2.099072933E-2,-5.176758766E-2,-2.258625031E-1
5.020324676E0,-2.379465103E-2,-2.441477776E-2,-2.020120621E-1
5.030323442E0,-4.143345356E-2,-2.845191956E-2,-1.780195236E-1
5.040322208E0,-4.248428345E-2,-2.808976173E-2,-1.634979248E-1
5.050320974E0,-6.504368782E-2,-6.238341331E-3,-1.657361984E-1
5.060319674E0,-8.983552456E-2,-5.853295326E-3,-1.775979996E-1
5.070318440E0,-9.272539616E-2,-1.352798939E-2,-2.013521194E-1
5.080317206E0,-9.997868538E-2,-2.640032768E-2,-2.011804581E-1
5.090315906E0,-8.505392075E-2,-2.489674091E-2,-1.987466812E-1
5.100314672E0,-6.952881813E-2,-3.481602669E-2,-2.228708267E-1
5.110313438E0,-7.013463974E-2,-7.831811905E-2,-2.255630493E-1
5.120312138E0,-4.168534279E-2,-9.464061260E-2,-2.260780334E-1
5.130310871E0,-4.739820957E-2,-9.358298779E-2,-2.193851471E-1
5.140309604E0,-4.575371742E-2,-7.992565632E-2,-2.128362656E-1
5.150308337E0,-4.428660870E-2,-1.044385433E-1,-2.014856339E-1
5.160307070E0,-3.865754604E-2,-8.761572838E-2,-1.829319000E-1
5.170305803E0,-3.596889973E-2,-9.709322453E-2,-1.690607071E-1
5.180304536E0,-2.897179127E-2,-9.179794788E-2,-1.575546265E-1
5.190303236E0,-3.160881996E-2,-1.030976772E-1,-1.891593933E-1
5.200301902E0,-3.030204773E-2,-7.586836815E-2,-1.775331497E-1
5.210300635E0,-4.555332661E-2,-6.056582928E-2,-1.611633301E-1
5.220299368E0,-5.114257336E-2,-3.149557114E-2,-1.925945282E-1
5.230298068E0,-4.679572582E-2,-3.884088993E-2,-1.976747513E-1
5.240296868E0,-3.956675529E-2,-3.449666500E-2,-2.363271713E-1
5.250295634E0,-4.208874702E-2,-1.144969463E-2,-2.389526367E-1
5.260294400E0,-2.804863453E-2,-3.868699074E-3,-2.317705154E-1
5.270293166E0,4.421710968E-3,3.223240376E-2,-2.244033813E-1
5.280291932E0,-8.745670319E-3,3.858411312E-2,-1.904926300E-1
5.290290698E0,-7.946729660E-3,3.684806824E-2,-1.731052399E-1
5.300289464E0,-3.507363796E-2,3.421604633E-2,-1.485471725E-1
5.310288164E0,-5.925345421E-2,2.128446102E-2,-1.910171509E-1
5.320286930E0,-8.763515949E-2,1.166224480E-3,-2.240304947E-1
5.330285730E0,-9.672272205E-2,-9.548187256E-3,-2.330989838E-1
5.340284430E0,-1.011500359E-1,-2.474486828E-2,-2.278270721E-1
5.350283196E0,-7.454884052E-2,-2.970051765E-2,-2.154655457E-1
5.360281962E0,-5.024731159E-2,-2.425348759E-2,-2.248172760E-1
5.370280662E0,-2.150905132E-2,-3.034985065E-2,-2.150125504E-1
5.380279428E0,-3.084540367E-3,-3.115844727E-2,-2.003564835E-1
5.390278194E0,-6.578564644E-3,-3.921008110E-2,-1.927928925E-1
5.400276960E0,-3.181815147E-3,-5.632102489E-2,-1.804723740E-1
5.410275726E0,-3.522646427E-2,-5.628252029E-2,-1.731061935E-1
5.420274492E0,-4.737055302E-2,-6.135189533E-2,-1.897811890E-1
5.430273258E0,-2.838027477E-2,-6.810641289E-2,-1.850318909E-1
5.440272024E0,-5.023801327E-2,-5.087602139E-2,-1.946277618E-1
5.450270724E0,-2.875661850E-2,-3.577756882E-2,-1.827697754E-1
5.460269490E0,-6.688892841E-2,-3.993940353E-2,-1.757326126E-1
5.470268290E0,-6.425368786E-2,-2.496123314E-2,-1.806774139E-1
5.480267123E0,-5.691707134E-2,-1.753199100E-2,-2.094841003E-1
5.490266023E0,-4.209101200E-2,-1.769959927E-2,-2.191276550E-1
5.500264989E0,-4.922199249E-2,-2.285623550E-2,-2.238626480E-1
5.510263955E0,-3.495538235E-2,-1.374220848E-2,-2.261552811E-1
5.520262955E0,-2.801108360E-2,-3.839981556E-2,-2.116165161E-1
5.530261955E0,-2.120578289E-2,-3.114807606E-2,-2.283086777E-1
5.540260921E0,-1.207745075E-2,-3.149414062E-2,-2.137899399E-1
5.550259987E0,-3.126156330E-2,-5.105149746E-2,-1.969537735E-1
5.560258987E0,-2.404141426E-2,-4.623031616E-2,-2.185163498E-1
5.570258053E0,-4.801058769E-2,-4.610562325E-2,-1.874065399E-1
5.580257119E0,-3.355610371E-2,-2.424573898E-2,-1.922683716E-1
5.590256119E0,-6.064105034E-2,-2.647757530E-2,-2.065067291E-1
5.600255185E0,-3.954136372E-2,-1.709735394E-2,-1.991958618E-1
5.610254251E0,-5.040597916E-2,-1.470279694E-2,-2.061119080E-1
5.620253251E0,-5.163621902E-2,-3.260612488E-3,-2.105522156E-1
5.630252284E0,-4.055380821E-2,-4.109740257E-3,-1.934595108E-1
5.640251350E0,-6.009411812E-2,-1.947939396E-2,-2.027807236E-1
5.650250416E0,-5.015981197E-2,-1.529276371E-2,-2.147216797E-1
5.660249482E0,-6.121861935E-2,-1.825761795E-2,-2.172060013E-1
5.670248548E0,-6.000554562E-2,-4.067623615E-2,-1.981525421E-1
5.680247614E0,-4.910671711E-2,-3.864300251E-2,-2.031526566E-1
5.690246680E0,-5.515658855E-2,-5.326318741E-2,-2.081317902E-1
5.700245680E0,-4.231011868E-2,-5.313146114E-2,-2.131252289E-1
5.710244746E0,-5.174577236E-2,-5.041146278E-2,-2.060289383E-1
5.720243812E0,-4.712665081E-2,-3.590810299E-2,-1.916522980E-1
5.730242812E0,-5.185616016E-2,-4.293084145E-2,-1.892986298E-1
5.740241878E0,-4.450964928E-2,-6.405413151E-2,-1.989831924E-1
5.750240944E0,-2.288889885E-2,-7.046854496E-2,-2.206811905E-1
5.760240010E0,-3.771722317E-2,-6.472289562E-2,-1.992034912E-1
5.770239043E0,-3.344094753E-2,-5.638420582E-2,-1.969032288E-1
5.780237976E0,-4.120612144E-2,-4.506134987E-2,-1.994819641E-1
5.790236909E0,-2.976667881E-2,-4.814755917E-2,-2.212152481E-1
5.800235775E0,-3.761434555E-2,-3.693449497E-2,-1.830530167E-1
5.810234575E0,-4.782223701E-2,-4.064893723E-2,-1.591653824E-1
5.820233408E0,-6.674969196E-2,-2.514469624E-2,-1.378622055E-1
5.830232208E0,-5.846095085E-2,-3.652405739E-2,-1.908683777E-1
5.840230941E0,-7.935881615E-2,-5.052471161E-2,-2.197980881E-1
5.850229674E0,-7.110702991E-2,-3.335046768E-2,-2.176971436E-1
5.860228407E0,-2.011919022E-2,-3.279173374E-2,-1.892089844E-1
5.870227073E0,-2.734351158E-2,-3.717660904E-3,-1.677122116E-1
5.880225806E0,1.099467278E-3,-2.788650990E-2,-1.580352783E-1
5.890224572E0,-2.998924255E-2,-1.355969906E-2,-1.724023819E-1
5.900223305E0,-5.314922333E-2,-1.848614216E-2,-1.916952133E-1
5.910222038E0,-7.128059864E-2,-7.112979889E-3,-2.157459259E-1
5.920220771E0,-8.217239380E-2,-3.508448601E-3,-2.229480743E-1
5.930219504E0,-7.360887527E-2,-1.953268051E-2,-2.229461670E-1
5.940218237E0,-7.444024086E-2,2.741694450E-3,-2.301635742E-1
5.950216937E0,-5.907690525E-2,1.186013222E-3,-2.229156494E-1
5.960215703E0,-2.937364578E-2,6.817221642E-3,-2.396068573E-1
5.970214469E0,-5.366325378E-3,1.301765442E-4,-2.177410126E-1
5.980213202E0,-1.563012600E-2,-1.853227615E-2,-2.220554352E-1
5.990211968E0,-2.115726471E-3,-4.650747776E-2,-2.120180130E-1
6.000210734E0,-1.720535755E-2,-5.974781513E-2,-2.068567276E-1
6.010209500E0,-3.956675529E-2,-6.285274029E-2,-2.065649033E-1
6.020208266E0,-6.388735771E-2,-7.052206993E-2,-1.896419525E-1
6.030207032E0,-6.343305111E-2,-5.873739719E-2,-1.897029877E-1
6.040205798E0,-8.653843403E-2,-5.834400654E-2,-1.995210648E-1
6.050204564E0,-8.270287514E-2,-3.864908218E-2,-1.879434586E-1
6.060203264E0,-8.097970486E-2,-2.359342575E-2,-1.908140182E-1
6.070202030E0,-5.503797531E-2,-1.584279537E-2,-1.913261414E-1
6.080200796E0,-4.419720173E-2,-3.011691570E-2,-1.892089844E-1
6.090199496E0,-2.393949032E-2,-2.050316334E-2,-1.990184784E-1
6.100198262E0,-1.212060452E-2,-5.151605606E-2,-2.205562592E-1
6.110197028E0,9.566307068E-3,-6.328868866E-2,-2.038602829E-1
6.120195728E0,2.595317364E-2,-8.184552193E-2,-1.871271133E-1
6.130194494E0,1.999330521E-2,-9.473609924E-2,-1.943254471E-1
6.140193260E0,3.310215473E-2,-8.527398109E-2,-1.992521286E-1
6.150192026E0,2.195501328E-2,-7.043385506E-2,-1.994266510E-1
6.160190792E0,6.107807159E-3,-6.737196445E-2,-1.876811981E-1
6.170189558E0,4.511833191E-3,-6.935584545E-2,-1.902313232E-1
6.180188324E0,-3.267145157E-2,-3.603148460E-2,-2.071094513E-1
6.190187057E0,-6.314504147E-2,-2.009868622E-2,-2.357511520E-1
6.200185757E0,-9.149885178E-2,-3.082633018E-3,-2.377719879E-1
6.210184523E0,-1.117227077E-1,7.200241089E-4,-2.397727966E-1
6.220183289E0,-9.671759605E-2,1.110315323E-2,-2.271623611E-1
6.230181989E0,-8.065021038E-2,-5.298018456E-3,-2.194843292E-1
6.240180755E0,-4.952907562E-2,-4.705071449E-3,-1.760730743E-1
6.250179488E0,-1.792228222E-2,-2.045285702E-2,-1.687498093E-1
6.260178221E0,-1.920044422E-2,-3.287410736E-2,-1.353845596E-1
6.270176954E0,-2.657735348E-2,-2.515661716E-2,-1.670598984E-1
6.280175654E0,-4.311299324E-2,-2.408397198E-2,-1.917314529E-1
6.290174387E0,-7.158827782E-2,-2.774214745E-2,-2.020530701E-1
6.300173120E0,-8.316183090E-2,-2.179944515E-2,-2.052240372E-1
6.310171786E0,-9.969902039E-2,-2.302789688E-2,-2.155427933E-1
6.320170519E0,-1.111066341E-1,-3.288149834E-3,-1.899175644E-1
6.330169252E0,-9.589481354E-2,-1.051843166E-2,-1.809978485E-1
6.340167952E0,-9.960627556E-2,-1.361131668E-3,-1.840324402E-1
6.350166718E0,-9.545683861E-2,-9.783029556E-3,-1.870641708E-1
6.360165484E0,-7.429516315E-2,-1.364040375E-2,-2.116527557E-1
6.370164184E0,-6.566298008E-2,-1.508712769E-2,-2.457056046E-1
6.380162950E0,-8.616352081E-2,-3.795850277E-2,-2.389936447E-1
6.390161716E0,-9.176993370E-2,-5.772829056E-2,-2.516660690E-1
6.400160482E0,-8.095157146E-2,-6.450748444E-2,-2.428960800E-1
6.410159248E0,-7.916593552E-2,-8.965444565E-2,-2.415533066E-1
6.420158014E0,-1.233001947E-1,-8.983278275E-2,-2.403011322E-1
6.430156780E0,-9.286630154E-2,-8.735048771E-2,-2.439498901E-1
6.440155546E0,-5.609631538E-2,-7.768332958E-2,-2.570047379E-1
6.450154246E0,-4.088640213E-2,-7.778573036E-2,-2.168664932E-1
6.460153012E0,-2.415716648E-2,-7.072734833E-2,-2.124633789E-1
6.470151778E0,-3.715825081E-2,-8.771908283E-2,-1.910800934E-1
6.480150478E0,-8.291125298E-2,-9.693217278E-2,-1.795301437E-1
6.490149278E0,-9.866452217E-2,-7.212483883E-2,-2.066278458E-1
6.500148044E0,-1.095188856E-1,-6.887626648E-2,-1.978302002E-1
6.510146810E0,-6.574976444E-2,-4.943060875E-2,-1.888465881E-1
6.520145576E0,-4.726612568E-2,-3.070533276E-2,-2.129907608E-1
6.530144342E0,-2.729618549E-2,2.359461784E-2,-2.081613541E-1
6.540143108E0,1.276373863E-3,4.572033882E-2,-2.125358582E-1
6.550141874E0,2.155435085E-2,4.033994675E-2,-2.069082260E-1
6.560140607E0,4.837012291E-2,1.990294456E-2,-2.225809097E-1
6.570139407E0,1.698768139E-2,1.307606697E-2,-1.972694397E-1
6.580138240E0,-8.973121643E-3,-1.554381847E-2,-2.127447128E-1
6.590137073E0,-4.355001450E-2,-5.625092983E-2,-2.427587509E-1
6.600135973E0,-6.782913208E-2,-8.185172081E-2,-2.562847137E-1
6.610134873E0,-6.047427654E-2,-1.038072109E-1,-2.366075516E-1
6.620133773E0,-7.237720490E-2,-1.111294031E-1,-2.552633286E-1
6.630132673E0,-6.485700607E-2,-1.243031025E-1,-2.430763245E-1
6.640131539E0,-2.667832375E-2,-1.054359674E-1,-2.548913956E-1
6.650130405E0,-1.120889187E-2,-7.620871067E-2,-2.187166214E-1
6.660129271E0,1.036429405E-2,-4.231536388E-2,-2.086334229E-1
6.670128137E0,3.301239014E-2,-3.037989140E-2,-1.886272430E-1
6.680127003E0,6.232571602E-2,2.162194252E-2,-1.492490768E-1
6.690125869E0,7.709622383E-2,4.922819138E-2,-9.299087524E-2
6.700124669E0,5.235016346E-2,5.883467197E-2,-1.325359344E-1
6.710123535E0,1.003301144E-2,4.346978664E-2,-1.387109756E-1
6.720122401E0,-5.419850349E-2,5.635380745E-3,-1.571254730E-1
6.730121201E0,-9.749042988E-2,-4.212033749E-2,-1.830348969E-1
6.740120067E0,-1.320872307E-1,-5.324888229E-2,-2.261438370E-1
6.750118933E0,-1.127201319E-1,-9.479212761E-2,-2.241497040E-1
6.760117799E0,-9.975636005E-2,-1.038883924E-1,-2.488803864E-1
6.770116665E0,-4.171156883E-2,-9.745979309E-2,-2.521734238E-1
6.780115531E0,1.959395409E-2,-9.771978855E-2,-2.241077423E-1
6.790114364E0,6.448006630E-2,-8.308053017E-2,-2.627439499E-1
6.800113230E0,9.988272190E-2,-6.588006020E-2,-2.314958572E-1
6.810112063E0,9.905767441E-2,-5.656516552E-2,-2.163228989E-1
6.820110929E0,5.576848984E-2,-5.507111549E-2,-2.030620575E-1
6.830109795E0,8.491992950E-3,-3.298234940E-2,-1.802244186E-1
6.840108595E0,-4.235124588E-2,-8.764624596E-3,-1.887216568E-1
6.850107461E0,-7.958567142E-2,-2.105665207E-2,-1.998548508E-1
6.860106294E0,-1.338770390E-1,-3.833949566E-2,-1.850585938E-1
6.870105127E0,-1.358541250E-1,-1.663553715E-2,-1.851730347E-1
6.880103927E0,-1.267986298E-1,-2.398049831E-2,-1.759643555E-1
6.890102660E0,-1.046406031E-1,-6.977081299E-3,-1.550903320E-1
6.900101393E0,-5.080235004E-2,7.185816765E-3,-1.462287903E-1
6.910100126E0,-4.733943939E-2,2.592325211E-2,-1.564645767E-1
6.920098792E0,-8.454442024E-3,1.268959045E-2,-1.592674255E-1
6.930097525E0,1.307404041E-2,8.786082268E-3,-1.882400513E-1
6.940096258E0,1.859819889E-2,-9.505867958E-3,-2.072887421E-1
6.950094924E0,-5.729079247E-3,-1.369524002E-2,-2.356338501E-1
6.960093657E0,-6.920695305E-3,-2.509510517E-2,-2.326793671E-1
6.970092390E0,1.335501671E-3,-6.498265266E-2,-2.417116165E-1
6.980091090E0,-5.037438869E-2,-6.335556507E-2,-2.436742783E-1
6.990089856E0,-4.396605492E-2,-9.220516682E-2,-3.296842575E-1
7.000088622E0,-6.356942654E-2,-6.711757183E-2,-2.483806610E-1
7.010087388E0,-1.041891575E-1,-4.641723633E-2,-1.624679565E-1
7.020086154E0,-1.147849560E-1,-8.194625378E-2,-1.987361908E-1
7.030084920E0,-1.364990473E-1,-7.419610023E-2,-2.232437134E-1
7.040083686E0,-1.215738058E-1,-4.469561577E-2,-2.024450302E-1
7.050082452E0,-1.137996912E-1,-4.359662533E-2,-1.912841797E-1
7.060081152E0,-8.933460712E-2,-2.353262901E-2,-1.657114029E-1
7.070079918E0,-4.762530327E-2,-2.529072762E-2,-1.449794769E-1
7.080078684E0,-8.520710468E-2,-1.719284058E-2,-1.433906555E-1
7.090077384E0,-1.099944115E-1,-1.679682732E-2,-1.682195663E-1
7.100076150E0,-1.103512049E-1,-3.120934963E-2,-2.026500702E-1
7.110074883E0,-1.185567379E-1,-3.857457638E-2,-2.369174957E-1
7.120073649E0,-8.404564857E-2,-3.198683262E-2,-2.351207733E-1
7.130072415E0,-5.763220787E-2,-1.114308834E-2,-2.331161499E-1
7.140071181E0,-1.507878304E-2,6.849527359E-3,-2.524538040E-1
7.150069947E0,1.693868637E-2,1.483237743E-2,-2.787046432E-1
7.160068713E0,4.518425465E-2,3.207564354E-2,-2.758855820E-1
7.170067413E0,5.042040348E-2,2.256739140E-2,-2.702999115E-1
7.180066179E0,4.755294323E-2,2.737593651E-2,-2.453603745E-1
7.190064945E0,3.474235535E-2,3.018260002E-3,-2.442121506E-1
7.200063645E0,1.430249214E-2,-1.650583744E-2,-2.214298248E-1
7.210062411E0,-4.922246933E-2,-2.564918995E-2,-2.083616257E-1
7.220061177E0,-2.081263065E-2,-5.343437195E-2,-1.764240265E-1
7.230059877E0,-3.753077984E-2,-5.877959728E-2,-1.806278229E-1
7.240058643E0,-6.804573536E-2,-8.706474304E-2,-1.923046112E-1
7.250057409E0,-8.394324780E-2,-6.906235218E-2,-2.137470245E-1
7.260056175E0,-8.732271194E-2,-7.001113892E-2,-2.185783386E-1
7.270054941E0,-7.175505161E-2,-5.106186867E-2,-2.402524948E-1
7.280053674E0,-9.721755981E-2,-2.250909805E-2,-2.187662125E-1
7.290052407E0,-7.634592056E-2,-1.578009129E-2,-2.285337448E-1
7.300051140E0,-9.030520916E-2,2.405488491E-2,-1.546573639E-1
7.310049806E0,-8.927440643E-2,1.293361187E-2,-1.358642578E-1
7.320048539E0,-9.805393219E-2,1.765382290E-2,-1.437005997E-1
7.330047305E0,-1.228728294E-1,-2.684712410E-3,-1.874094009E-1
7.340045971E0,-1.210423708E-1,-2.825379372E-2,-1.832208633E-1
7.350044704E0,-1.409941912E-1,-3.510797024E-2,-2.172145844E-1
7.360043437E0,-1.220588684E-1,-5.656349659E-2,-2.488908768E-1
7.370042170E0,-8.939313889E-2,-8.950567245E-2,-2.565736771E-1
7.380040903E0,-8.370900154E-2,-1.095983982E-1,-2.642726898E-1
7.390039669E0,-2.874267101E-2,-1.309431791E-1,-2.719631195E-1
7.400038435E0,-1.357710361E-2,-1.198319197E-1,-2.532348633E-1
7.410037235E0,2.875936031E-2,-1.168529987E-1,-2.679548264E-1
7.420035968E0,3.853332996E-2,-8.873319626E-2,-2.370910645E-1
7.430034734E0,5.474424362E-2,-5.739855766E-2,-1.846628189E-1
7.440033500E0,4.890084267E-2,-2.161502838E-2,-1.655883789E-1
7.450032200E0,6.651604176E-2,-1.317203045E-2,-1.486339569E-1
7.460030966E0,7.384705544E-2,3.734350204E-3,-1.289501190E-1
7.470029732E0,6.628477573E-2,5.248188972E-3,-1.353158951E-1
7.480028432E0,5.080151558E-2,8.077383041E-3,-1.485242844E-1
7.490027198E0,5.665457249E-2,-9.340524673E-3,-1.782627106E-1
7.500025964E0,4.978036880E-2,-1.526749134E-2,-2.005720139E-1
7.510024730E0,3.057205677E-2,-4.522383213E-2,-2.299680710E-1
7.520023496E0,1.860618591E-2,-6.283760071E-2,-2.618284225E-1
7.530022262E0,-1.491808891E-2,-8.506751060E-2,-2.300786972E-1
7.540021028E0,-3.139376640E-2,-7.119500637E-2,-2.487030029E-1
7.550019794E0,-3.274154663E-2,-7.679820061E-2,-2.530670166E-1
7.560018494E0,-5.275309086E-2,-8.906757832E-2,-2.408628464E-1
7.570017260E0,-7.665979862E-2,-7.750082016E-2,-2.551689148E-1
7.580016026E0,-5.000329018E-2,-4.675340652E-2,-2.264404297E-1
7.590014726E0,-5.962479115E-2,-2.039682865E-2,-1.929149628E-1
7.600013492E0,-4.573810101E-2,-3.559947014E-3,-1.808547974E-1
7.610012292E0,-6.860935688E-2,4.385948181E-3,-1.400003433E-1
7.620011092E0,-7.827794552E-2,3.055548668E-2,-1.136169434E-1
7.630009958E0,-6.777226925E-2,-1.915931702E-3,-1.638650894E-1
7.640008924E0,-7.786011696E-2,6.124615669E-3,-1.951284409E-1
7.650007890E0,-8.759987354E-2,1.667737961E-3,-1.928567886E-1
7.660006890E0,-8.246088028E-2,-2.684378624E-2,-2.002506256E-1
7.670005856E0,-6.555068493E-2,-3.085541725E-2,-1.981191635E-1
7.680004889E0,-5.321848392E-2,-3.697061539E-2,-1.912918091E-1
7.690003955E0,-5.286753178E-2,-5.932497978E-2,-2.013111115E-1
7.700002955E0,-8.060038090E-2,-4.048836231E-2,-2.043657303E-1
7.710001988E0,-8.874535561E-2,-4.314815998E-2,-2.242784500E-1
7.720001021E0,-7.563745975E-2,-3.328967094E-2,-2.178831100E-1
7.730000021E0,-7.988131046E-2,-6.202411652E-2,-2.137107849E-1
7.739999087E0,-7.476532459E-2,-5.661404133E-2,-1.976251602E-1
7.749998153E0,-5.592560768E-2,-3.669881821E-2,-2.077665329E-1
7.759997219E0,-5.536556244E-2,-5.540585518E-2,-2.223253250E-1
7.769996285E0,-3.950035572E-2,-6.220221519E-2,-2.102336884E-1
7.779995351E0,-3.446686268E-2,-6.404590607E-2,-2.170600891E-1
7.789994417E0,-3.970766068E-2,-9.708189964E-2,-2.141532898E-1
7.799993483E0,-6.586337090E-2,-9.828221798E-2,-1.875562668E-1
7.809992483E0,-7.401061058E-2,-8.687925339E-2,-2.044248581E-1
7.819991549E0,-1.258686781E-1,-8.937966824E-2,-2.169551849E-1
7.829990615E0,-1.374449730E-1,-8.666729927E-2,-2.539138794E-1
7.839989615E0,-1.338273287E-1,-8.158087730E-2,-2.742805481E-1
7.849988681E0,-1.303383112E-1,-7.184362411E-2,-2.491025925E-1
7.859987747E0,-8.962309361E-2,-6.454432011E-2,-2.619991302E-1
7.869986813E0,-1.018846035E-2,-6.031310558E-2,-2.480306625E-1
7.879985879E0,3.546619415E-2,-5.645763874E-2,-2.334461212E-1
7.889984945E0,8.550989628E-2,-4.821753502E-2,-2.110280991E-1
7.899984011E0,1.018543243E-1,-3.341507912E-2,-1.735973358E-1
7.909983044E0,1.452939510E-1,-3.358507156E-2,-1.620502472E-1
7.919982010E0,9.659743309E-2,-1.274240017E-2,-1.573419571E-1
7.929980943E0,7.926225662E-2,1.948440075E-2,-1.645460129E-1
7.939979809E0,2.466678619E-2,4.599738121E-2,-1.813812256E-1
7.949978609E0,-6.508111954E-3,1.004157066E-1,-2.152309418E-1
7.959977442E0,-2.159762383E-2,1.129411459E-1,-2.109346390E-1
7.969976242E0,-5.396330357E-2,1.316170692E-1,-2.140445709E-1
7.979975008E0,-5.349874496E-2,1.636797190E-1,-2.341108322E-1
7.989973741E0,-6.198072433E-2,1.415777206E-1,-2.396879196E-1
7.999972474E0,-4.624390602E-2,1.278562546E-1,-2.379283905E-1
8.009971207E0,-4.966950417E-2,8.007872105E-2,-2.504310608E-1
8.019969940E0,-2.187538147E-2,2.750229836E-2,-2.725191116E-1
8.029968673E0,-2.341580391E-2,-1.933574677E-4,-2.730817795E-1
8.039967439E0,3.676652908E-3,-5.767297745E-2,-2.834300995E-1
8.049966172E0,-3.472328186E-3,-8.465743065E-2,-2.699832916E-1
8.059964838E0,2.955579758E-2,-9.760236740E-2,-2.496070862E-1
8.069963571E0,4.546165466E-3,-1.252716780E-1,-2.581920624E-1
8.079962304E0,6.094694138E-3,-1.248300076E-1,-2.192554474E-1
8.089960970E0,-1.888442039E-2,-1.323279142E-1,-1.566219330E-1
8.099959703E0,-4.770016670E-2,-1.361997128E-1,-1.327228546E-1
8.109958469E0,-5.469679832E-2,-1.439684629E-1,-1.090393066E-1
8.119957235E0,-8.018279076E-2,-1.579864025E-1,-8.566284180E-2
8.129956001E0,-9.329617023E-2,-1.545264721E-1,-8.644104004E-2
8.139954767E0,-1.063015461E-1,-1.623225212E-1,-1.208839417E-1
8.149953533E0,-1.424497366E-1,-1.456753016E-1,-1.579790115E-1
8.159952299E0,-1.155436039E-1,-1.598409414E-1,-2.168474197E-1
8.169950999E0,-1.094011068E-1,-1.325329542E-1,-2.257347107E-1
8.179949765E0,-1.050939560E-1,-9.086406231E-2,-2.538909912E-1
8.189948531E0,-1.193770170E-1,-7.113051414E-2,-2.701253891E-1
8.199947231E0,-9.695601463E-2,-6.583094597E-3,-2.600746155E-1
8.209945997E0,-8.880054951E-2,2.755284309E-2,-2.808771133E-1
8.219944763E0,-4.766869545E-2,7.381093502E-2,-2.987871170E-1
8.229943463E0,-2.642893791E-2,9.385907650E-2,-2.969980240E-1
8.239942229E0,1.495742798E-2,1.216664314E-1,-3.113555908E-1
8.249940995E0,4.217314720E-2,1.281073093E-1,-2.506399155E-1
8.259939761E0,9.126377106E-2,1.306734085E-1,-2.131633759E-1
8.269938527E0,1.076016426E-1,1.392536163E-1,-1.320314407E-1
8.279937260E0,1.067817211E-1,1.134842634E-1,-9.615516663E-2
8.289936026E0,2.958631516E-2,8.277952671E-2,-1.225500107E-1
8.299934792E0,-5.042099953E-2,2.353513241E-2,-1.685581207E-1
8.309933492E0,-8.604598045E-2,-3.002727032E-2,-2.149982452E-1
8.319932258E0,-9.413409233E-2,-7.526540756E-2,-2.403497696E-1
8.329931024E0,-6.336450577E-2,-1.354216337E-1,-2.445926666E-1
8.339929690E0,-5.990600586E-2,-1.407334805E-1,-2.585725784E-1
8.349928456E0,-3.958177567E-2,-1.634092331E-1,-2.297906876E-1
8.359927222E0,-1.993775368E-2,-1.438558102E-1,-2.202777863E-1
8.369925988E0,-5.675554276E-3,-1.516312361E-1,-2.156639099E-1
8.379924754E0,-2.503085136E-2,-1.396553516E-1,-1.991567612E-1
8.389923520E0,-2.724146843E-2,-1.347019672E-1,-2.043075562E-1
8.399922286E0,-5.048847198E-2,-1.177972555E-1,-1.952009201E-1
8.409921019E0,-1.066937447E-1,-8.860003948E-2,-2.006368637E-1
8.419919685E0,-9.669327736E-2,-8.643913269E-2,-1.919298172E-1
8.429918418E0,-1.292095184E-1,-9.896671772E-2,-2.216053009E-1
8.439917151E0,-1.010349989E-1,-8.047032356E-2,-2.107419968E-1
8.449915817E0,-8.989000320E-2,-7.877027988E-2,-2.237548828E-1
8.459914550E0,-9.058666229E-2,-7.247662544E-2,-2.032403946E-1
8.469913283E0,-4.828286171E-2,-4.734504223E-2,-1.994104385E-1
8.479911949E0,-2.829027176E-2,-3.751718998E-2,-2.072229385E-1
8.489910682E0,-2.299833298E-2,-1.402330399E-2,-2.172374725E-1
8.499909448E0,-3.915548325E-3,2.514147758E-2,-1.982107162E-1
8.509908214E0,-2.405333519E-2,2.412164211E-2,-2.097940445E-1
8.519906980E0,-1.061296463E-2,4.220914841E-2,-2.237768173E-1
8.529905746E0,-3.353142738E-2,4.225814342E-2,-2.374448776E-1
8.539904512E0,-4.908204079E-2,1.507413387E-2,-2.294530869E-1
8.549903278E0,-5.529046059E-2,1.166152954E-2,-2.237739563E-1
8.559901978E0,-7.760858536E-2,-5.854487419E-3,-2.134943008E-1
8.569900744E0,-6.145858765E-2,-1.578629017E-2,-1.913461685E-1
8.579899510E0,-6.670951843E-2,-2.536773682E-2,-2.052021027E-1
8.589898210E0,-7.413363457E-2,-3.190791607E-2,-2.120332718E-1
8.599896976E0,-6.909465790E-2,-4.760515690E-2,-2.381992340E-1
8.609895742E0,-5.680274963E-2,-3.162288666E-2,-2.046184540E-1
8.619894508E0,-6.593799591E-2,-3.242373466E-2,-2.117633820E-1
8.629893274E0,-4.639220238E-2,-4.990422726E-2,-2.093324661E-1
8.639892040E0,-2.918219566E-2,-2.643525600E-2,-2.261114120E-1
8.649890806E0,-3.909420967E-2,-4.822957516E-2,-2.259950638E-1
8.659889572E0,-2.719688416E-2,-3.845179081E-2,-2.164363861E-1
8.669888272E0,-3.484797478E-2,-3.396224976E-2,-2.234640121E-1
8.679887038E0,-5.177044868E-2,-4.094612598E-2,-1.803655624E-1
8.689885804E0,-7.082939148E-2,-4.816687107E-2,-1.947460175E-1
8.699884537E0,-8.054256439E-2,-6.027531624E-2,-1.899032593E-1
8.709883337E0,-7.328557968E-2,-5.780863762E-2,-2.090864182E-1
8.719882170E0,-8.266377449E-2,-6.039595604E-2,-2.067041397E-1
8.729881003E0,-7.731533051E-2,-5.578398705E-2,-2.139806747E-1
8.739879903E0,-6.424212456E-2,-6.043338776E-2,-2.477684021E-1
8.749878803E0,-7.259559631E-2,-4.539263248E-2,-2.313957214E-1
8.759877703E0,-7.561492920E-2,-5.912303925E-2,-2.342891693E-1
8.769876603E0,-6.630659103E-2,-4.842710495E-2,-2.229785919E-1
8.779875503E0,-7.618379593E-2,-2.798807621E-2,-1.805639267E-1
8.789874403E0,-6.693339348E-2,-3.428959846E-2,-1.500444412E-1
8.799873269E0,-7.220959663E-2,-5.980670452E-2,-1.314506531E-1
8.809872069E0,-8.540320396E-2,-4.458010197E-2,-1.414318085E-1
8.819870935E0,-1.038762331E-1,-5.137121677E-2,-1.703796387E-1
8.829869801E0,-4.210162163E-2,-5.379974842E-2,-2.181539536E-1
8.839868601E0,-1.058292389E-2,-6.854474545E-2,-2.368030548E-1
8.849867467E0,4.364514351E-2,-7.803022861E-2,-2.624416351E-1
8.859866333E0,8.499574661E-2,-6.548428535E-2,-2.664117813E-1
8.869865199E0,1.406111717E-1,-5.299448967E-2,-2.918958664E-1
8.879864065E0,1.240913868E-1,-2.101933956E-2,-3.077898026E-1
8.889862931E0,6.299281120E-2,-8.596897125E-3,-3.381824493E-1
8.899861797E0,2.431154251E-2,3.433465958E-2,-3.135948181E-1
8.909860663E0,-3.546762466E-2,5.703997612E-2,-2.482223511E-1
8.919859463E0,-1.092519760E-1,8.322572708E-2,-1.827077866E-1
8.929858329E0,-1.469748020E-1,8.278524876E-2,-1.402025223E-1
8.939857195E0,-1.583648920E-1,9.658110142E-2,-1.402339935E-1
8.949855995E0,-1.965596676E-1,8.364772797E-2,-1.275901794E-1
8.959854861E0,-1.579862833E-1,4.671406746E-2,-1.359815598E-1
8.969853727E0,-1.357558966E-1,1.272439957E-2,-1.966953278E-1
8.979852527E0,-1.015126705E-1,-3.806984425E-2,-2.071247101E-1
8.989851393E0,-6.819581985E-2,-6.451106071E-2,-2.347116470E-1
8.999850193E0,-7.609534264E-2,-7.634627819E-2,-2.675523758E-1
9.009849026E0,-5.190706253E-2,-7.825410366E-2,-2.605075836E-1
9.019847826E0,-5.282855034E-2,-8.945596218E-2,-2.399644852E-1
9.029846559E0,-5.432772636E-2,-8.351302147E-2,-2.366552353E-1
9.039845292E0,-5.292797089E-2,-8.029568195E-2,-2.262144089E-1
9.049844025E0,-3.353881836E-2,-1.013885736E-1,-2.250232697E-1
9.059842691E0,-3.342294693E-2,-8.241426945E-2,-2.207660675E-1
9.069841424E0,-2.437353134E-2,-5.192077160E-2,-2.133569717E-1
9.079840157E0,1.224422455E-2,-5.528914928E-2,-1.931238174E-1
9.089838823E0,2.805519104E-2,-6.102168560E-2,-1.916742325E-1
9.099837556E0,3.397321701E-2,-4.528009892E-2,-2.068986893E-1
9.109836289E0,1.953291893E-2,-6.028890610E-2,-2.104787827E-1
9.119835022E0,-1.697731018E-2,-6.542980671E-2,-2.432613373E-1
9.129833755E0,-2.314829826E-2,-5.857086182E-2,-2.357101440E-1
9.139832521E0,-7.300448418E-2,-5.384540558E-2,-2.477664948E-1
9.149831287E0,-8.348703384E-2,-2.277028561E-2,-2.385187149E-1
9.159830053E0,-9.123873711E-2,-8.259415627E-3,-2.293787003E-1
9.169828753E0,-9.928846359E-2,1.317429543E-2,-2.105512619E-1
9.179827519E0,-9.147381783E-2,2.468061447E-2,-1.890649796E-1
9.189826285E0,-6.592750549E-2,3.827857971E-2,-1.815719604E-1
9.199824985E0,-8.232498169E-2,1.808381081E-2,-2.000894547E-1
9.209823751E0,-7.026505470E-2,4.282212257E-2,-2.160539627E-1
9.219822517E0,-4.879736900E-2,2.437055111E-2,-2.104158401E-1
9.229821217E0,-3.159832954E-2,1.444232464E-2,-2.335758209E-1
9.239819983E0,-3.102946281E-2,1.440513134E-2,-2.520284653E-1
9.249818749E0,-4.953145981E-2,-2.246141434E-3,-2.370033264E-1
9.259817482E0,-4.367017746E-2,-6.346702576E-3,-2.197761536E-1
9.269816248E0,-6.159734726E-2,-1.249182224E-2,-2.289810181E-1
9.279815014E0,-6.330680847E-2,-1.309633255E-2,-2.334032059E-1
9.289813780E0,-5.107307434E-2,-1.123750210E-2,-2.066144943E-1
9.299812580E0,-7.577443123E-2,-1.970410347E-3,-2.227315903E-1
9.309811280E0,-7.668685913E-2,-2.631008625E-2,-2.076711655E-1
9.319810046E0,-5.813670158E-2,-1.723587513E-2,-2.237863541E-1
9.329808812E0,-5.885076523E-2,-3.182733059E-2,-1.896457672E-1
9.339807545E0,-6.182885170E-2,-2.185952663E-2,-2.011327744E-1
9.349806311E0,-6.627082825E-2,-2.184867859E-3,-2.152471542E-1
9.359805077E0,-6.072354317E-2,-4.059195518E-3,-2.007236481E-1
9.369803843E0,-5.678558350E-2,-2.019548416E-2,-2.079429626E-1
9.379802609E0,-7.437729836E-2,-3.834712505E-2,-2.152338028E-1
9.389801375E0,-8.457398415E-2,-8.539342880E-2,-2.033901215E-1
9.399800141E0,-7.803773880E-2,-1.075682640E-1,-2.060689926E-1
9.409798941E0,-7.653379440E-2,-1.072194576E-1,-2.352008820E-1
9.419797674E0,-4.227256775E-2,-1.208950281E-1,-2.019710541E-1
9.429796440E0,-1.357746124E-2,-1.266511679E-1,-1.471452713E-1
9.439795173E0,-2.329349518E-3,-1.051418781E-1,-1.378202438E-1
9.449793839E0,8.893728256E-3,-1.122552156E-1,-1.332979202E-1
9.459792572E0,-3.466439247E-2,-9.038043022E-2,-1.624031067E-1
9.469791305E0,-5.355715752E-2,-7.082509995E-2,-2.108383179E-1
9.479789971E0,-7.225894928E-2,-6.593978405E-2,-2.616567612E-1
9.489788704E0,-4.371452332E-2,-5.699217319E-2,-2.595281601E-1
9.499787437E0,-5.141901970E-2,-2.734422684E-3,-2.429285049E-1
9.509786170E0,-1.647043228E-2,-1.188635826E-2,-2.356014252E-1
9.519784903E0,-1.513004303E-3,2.909767628E-2,-2.208776474E-1
9.529783636E0,1.760196686E-2,5.728054047E-2,-2.082586288E-1
9.539782369E0,5.078315735E-3,5.808532238E-2,-2.025251389E-1
9.549781135E0,1.530170441E-3,4.093050957E-2,-2.108087540E-1
9.559779868E0,-2.819609642E-2,2.793729305E-2,-2.262001038E-1
9.569778634E0,-4.067230225E-2,7.442235947E-3,-1.817855835E-1
9.579777400E0,-6.899094582E-2,1.333415508E-2,-2.094154358E-1
9.589776100E0,-6.751370430E-2,9.463429451E-3,-1.941566467E-1
9.599774866E0,-1.014170647E-1,5.435943604E-3,-1.981430054E-1
9.609773632E0,-7.173252106E-2,-5.089282990E-3,-2.025566101E-1
9.619772398E0,-9.714913368E-2,-2.512753010E-2,-1.973943710E-1
9.629771164E0,-7.686376572E-2,-1.078510284E-2,-2.020101547E-1
9.639769897E0,-5.445384979E-2,-2.482008934E-2,-1.850786209E-1
9.649768663E0,-5.381965637E-2,-2.170777321E-2,-1.968955994E-1
9.659767429E0,-2.711153030E-2,-2.308499813E-2,-1.991291046E-1
9.669766129E0,-4.601383209E-2,-4.902243614E-3,-1.870412827E-1
9.679764895E0,-1.443696022E-2,-3.724062443E-2,-1.869258881E-1
9.689763661E0,-6.891965866E-3,-4.511821270E-2,-1.964607239E-1
9.699762361E0,-1.890802383E-2,-5.039322376E-2,-2.011528015E-1
9.709761094E0,-2.816438675E-2,-6.255066395E-2,-1.916151047E-1
9.719759827E0,-5.457901955E-2,-3.102219105E-2,-2.084293365E-1
9.729758527E0,-7.566785812E-2,-5.941939354E-2,-2.014112473E-1
9.739757293E0,-7.992243767E-2,-5.217754841E-2,-1.943607330E-1
9.749756093E0,-7.714915276E-2,-4.888916016E-2,-2.065782547E-1
9.759754893E0,-7.688522339E-2,-3.605055809E-2,-1.996107101E-1
9.769753793E0,-7.404327393E-2,-3.032684326E-2,-2.094573975E-1
9.779752759E0,-3.752565384E-2,-2.490401268E-2,-1.977367401E-1
9.789751725E0,-4.456520081E-2,-3.864991665E-2,-1.883029938E-1
9.799750725E0,-2.211403847E-2,-2.123260498E-2,-1.910200119E-1
9.809749691E0,-1.463556290E-2,-3.238070011E-2,-2.151765823E-1
9.819748724E0,-1.385951042E-2,-2.729523182E-2,-2.010402679E-1
9.829747790E0,1.162767410E-3,-5.560326576E-2,-1.940822601E-1
9.839746856E0,1.082658768E-3,-5.261433125E-2,-1.917762756E-1
9.849745956E0,-1.378345490E-2,-3.036975861E-2,-1.965751648E-1
9.859745089E0,-1.475238800E-2,-2.985060215E-2,-2.012357712E-1
9.869744189E0,-1.609826088E-2,-2.950727940E-2,-2.033843994E-1
9.879743289E0,-2.765750885E-2,-2.669048309E-2,-1.862497330E-1
9.889742389E0,-4.678130150E-2,-3.120720387E-2,-2.049140930E-1
9.899741489E0,-4.660415649E-2,-2.358031273E-2,-1.901226044E-1
9.909740589E0,-4.330205917E-2,-3.788971901E-2,-2.041587830E-1
9.919739622E0,-4.896974564E-2,-5.186843872E-2,-2.064208984E-1
9.929738722E0,-5.152773857E-2,-5.373907089E-2,-1.992950439E-1
9.939737822E0,-5.415654182E-2,-4.600203037E-2,-1.921558380E-1
9.949736855E0,-5.624270439E-2,-4.105627537E-2,-1.802825928E-1
9.959735955E0,-3.856635094E-2,-2.871263027E-2,-1.949253082E-1
9.969735055E0,-4.686069489E-2,-3.565108776E-2,-2.000494003E-1
9.979734088E0,-4.537320137E-2,-3.064060211E-2,-2.100048065E-1
9.989733188E0,-6.790280342E-2,-2.567386627E-2,-2.295122147E-1
9.999732288E0,-5.298972130E-2,5.415558815E-3,-2.009000778E-1
1.000973139E1,-4.356217384E-2,9.560704231E-3,-1.863851547E-1
1.001973049E1,-4.423236847E-2,5.928516388E-3,-1.524915695E-1
1.002972959E1,-4.940485954E-2,-1.000833511E-2,-1.425485611E-1
1.003972869E1,-9.686899185E-2,-9.204268456E-3,-1.495437622E-1
1.004972775E1,-1.528837681E-1,-4.216229916E-2,-2.070093155E-1
1.005972675E1,-1.526923180E-1,-6.971335411E-2,-1.978025436E-1
1.006972572E1,-1.875767708E-1,-6.778323650E-2,-2.032861710E-1
1.007972462E1,-1.572335958E-1,-8.438324928E-2,-1.994352341E-1
1.008972345E1,-1.506954432E-1,-7.857656479E-2,-1.790065765E-1
1.009972232E1,-1.125843525E-1,-6.988179684E-2,-2.186222076E-1
1.010972115E1,-4.205179214E-2,-5.375206470E-2,-2.269067764E-1
1.011971999E1,5.675554276E-3,-4.976415634E-2,-2.276935577E-1
1.012971879E1,3.050065041E-2,-3.401911259E-2,-2.425041199E-1
1.013971752E1,5.633354187E-2,-3.073656559E-2,-2.617025375E-1
1.014971625E1,5.498170853E-2,-4.948246479E-2,-2.087965012E-1
1.015971495E1,1.733851433E-2,-4.616582394E-2,-2.373027802E-1
1.016971362E1,2.062225342E-2,-5.748343468E-2,-2.370796204E-1
1.017971235E1,1.144242287E-2,-4.694736004E-2,-2.296171188E-1
1.018971108E1,-2.190971375E-2,-5.308783054E-2,-2.269039154E-1
1.019970978E1,-3.631186485E-2,-5.689561367E-2,-2.504720688E-1
1.020970855E1,-4.371404648E-2,-7.043790817E-2,-2.141122818E-1
1.021970732E1,-5.553770065E-2,-3.330814838E-2,-2.066354752E-1
1.022970602E1,-7.430887222E-2,-1.559638977E-2,-1.704339981E-1
1.023970478E1,-7.283091545E-2,-1.520407200E-2,-1.559286118E-1
1.024970355E1,-9.183835983E-2,4.111647606E-3,-1.200780869E-1
1.025970231E1,-1.191768646E-1,-1.757466793E-2,-1.275510788E-1
1.026970108E1,-1.165711880E-1,-1.981675625E-2,-1.281700134E-1
1.027969985E1,-8.461213112E-2,-4.110038280E-2,-1.720447540E-1
1.028969865E1,-1.129789352E-1,-4.778051376E-2,-1.847276688E-1
1.029969741E1,-9.381771088E-2,-4.978263378E-2,-2.212524414E-1
1.030969611E1,-6.340551376E-2,-6.121063232E-2,-2.265167236E-1
1.031969488E1,-3.631854057E-2,-5.603194237E-2,-2.578802109E-1
1.032969364E1,1.132154465E-2,-7.724237442E-2,-2.746448517E-1
1.033969234E1,1.664137840E-2,-5.022466183E-2,-2.647686005E-1
1.034969111E1,2.903604507E-2,-3.033173084E-2,-2.476940155E-1
1.035968988E1,2.467608452E-2,-5.687355995E-3,-2.521619797E-1
1.036968864E1,6.562948227E-3,-2.825617790E-3,-2.519378662E-1
1.037968741E1,-2.547669411E-2,-1.225435734E-2,-2.373905182E-1
1.038968621E1,-3.527832031E-2,1.634538174E-2,-2.109813690E-1
1.039968497E1,-6.162142754E-2,1.101028919E-2,-2.084884644E-1
1.040968374E1,-4.946589470E-2,-9.090304375E-3,-2.035741806E-1
1.041968244E1,-7.801175117E-2,-1.031720638E-2,-1.722745895E-1
1.042968121E1,-8.685398102E-2,-1.422882080E-2,-1.841449738E-1
1.043967997E1,-9.079360962E-2,-3.274846077E-2,-1.648712158E-1
1.044967867E1,-1.064426899E-1,-4.607653618E-2,-1.337566376E-1
1.045967744E1,-1.196248531E-1,-7.784748077E-2,-1.554574966E-1
1.046967620E1,-1.370875835E-1,-1.039981842E-1,-1.319293976E-1
1.047967490E1,-1.396030188E-1,-1.171323061E-1,-1.470251083E-1
1.048967367E1,-1.277810335E-1,-1.196678877E-1,-1.814508438E-1
1.049967240E1,-1.137723923E-1,-1.289783716E-1,-2.206869125E-1
1.050967114E1,-8.071970940E-2,-1.302086115E-1,-2.432947159E-1
1.051966987E1,-3.376102448E-2,-1.117830276E-1,-2.419433594E-1
1.052966860E1,1.002073288E-3,-1.028325558E-1,-2.357711792E-1
1.053966733E1,3.628802299E-2,-7.000648975E-2,-2.680082321E-1
1.054966607E1,2.582311630E-2,-4.271757603E-2,-2.785072327E-1
1.055966473E1,5.382752419E-2,-2.364182472E-2,-2.792835236E-1
1.056966347E1,5.194473267E-2,1.157760620E-2,-2.557506561E-1
1.057966220E1,6.547975540E-2,6.273579597E-2,-2.102260590E-1
1.058966086E1,8.917784691E-2,6.003117561E-2,-1.616945267E-1
1.059965963E1,1.041758060E-1,8.512020111E-2,-1.485748291E-1
1.060965840E1,4.664039612E-2,9.232854843E-2,-1.159448624E-1
1.061965716E1,-1.991128922E-2,2.666652203E-2,-1.550836563E-1
1.062965593E1,-9.694504738E-2,3.679752350E-3,-1.633558273E-1
1.063965470E1,-1.671344042E-1,-1.446223259E-2,-1.936483383E-1
1.064965346E1,-2.161772251E-1,-3.979480267E-2,-1.956577301E-1
1.065965223E1,-2.365454435E-1,-5.509376526E-2,-2.006664276E-1
1.066965093E1,-2.070653439E-1,-8.138549328E-2,-2.182588577E-1
1.067964969E1,-1.746076345E-1,-8.476603031E-2,-2.098817825E-1
1.068964843E1,-1.251306534E-1,-9.647071362E-2,-2.065687180E-1
1.069964713E1,-1.007790565E-1,-9.237086773E-2,-2.152118683E-1
1.070964589E1,-8.276295662E-2,-8.992791176E-2,-2.284269333E-1
1.071964466E1,-3.233408928E-2,-9.966540337E-2,-2.317800522E-1
1.072964336E1,1.533269882E-3,-8.308386803E-2,-2.609777451E-1
1.073964212E1,5.547714233E-2,-4.550325871E-2,-2.753849030E-1
1.074964089E1,6.014156342E-2,-1.815521717E-2,-2.941570282E-1
1.075963966E1,1.010177135E-1,2.548515797E-2,-2.865743637E-1
1.076963842E1,8.655571938E-2,6.596112251E-2,-2.476720810E-1
1.077963719E1,5.318379402E-2,7.210481167E-2,-2.445936203E-1
1.078963595E1,3.688001633E-2,9.176754951E-2,-2.079162598E-1
1.079963472E1,-1.316332817E-2,7.426035404E-2,-1.805438995E-1
1.080963342E1,-4.418134689E-2,5.615532398E-2,-1.674022675E-1
1.081963219E1,-8.986496925E-2,3.757393360E-2,-1.301641464E-1
1.082963095E1,-1.300729513E-1,-1.443898678E-2,-1.601314545E-1
1.083962968E1,-1.552282572E-1,-4.921591282E-2,-1.687898636E-1
1.084962848E1,-1.764010191E-1,-9.758353233E-2,-2.162475586E-1
1.085962739E1,-1.652305126E-1,-1.492851973E-1,-2.259292603E-1
1.086962628E1,-1.477608681E-1,-1.850446463E-1,-2.290477753E-1
1.087962525E1,-1.269183159E-1,-1.852695942E-1,-2.447137833E-1
1.088962422E1,-5.232334137E-2,-1.837787628E-1,-2.537384033E-1
1.089962318E1,-2.847957611E-2,-1.737360954E-1,-2.293787003E-1
1.090962218E1,4.524230957E-3,-1.551499367E-1,-2.243127823E-1
1.091962118E1,-1.981258392E-3,-1.167834997E-1,-1.975336075E-1
1.092962025E1,-9.845256805E-3,-9.267377853E-2,-1.632852554E-1
1.093961932E1,-3.380751610E-2,-6.431043148E-2,-1.524953842E-1
1.094961835E1,-4.773020744E-2,-3.963363171E-2,-1.578102112E-1
1.095961741E1,-9.409117699E-2,-3.591084480E-2,-1.577291489E-1
1.096961648E1,-7.611727715E-2,-1.907336712E-2,-1.980638504E-1
1.097961548E1,-8.677554131E-2,-6.112098694E-3,-2.142210007E-1
1.098961455E1,-7.982063293E-2,-2.272880077E-2,-2.280273438E-1
1.099961361E1,-9.316515923E-2,-4.233002663E-2,-2.228555679E-1
1.100961268E1,-5.919599533E-2,-4.739689827E-2,-2.492427826E-1
1.101961178E1,-4.360628128E-2,-3.804099560E-2,-2.542676926E-1
1.102961084E1,-4.247212410E-2,-2.417004108E-2,-2.352809906E-1
1.103960988E1,-6.267929077E-2,-1.160979271E-3,-1.899271011E-1
1.104960894E1,-6.559348106E-2,2.119410038E-2,-1.541566849E-1
1.105960794E1,-9.043192863E-2,2.403616905E-2,-1.350002289E-1
1.106960701E1,-1.108447313E-1,3.085386753E-2,-1.204080582E-1
1.107960608E1,-1.102138758E-1,5.815744400E-2,-1.342525482E-1
1.108960508E1,-7.699155807E-2,8.177566528E-2,-1.859693527E-1
1.109960414E1,-5.704450607E-2,6.333673000E-2,-2.587060928E-1
1.110960321E1,3.651356697E-2,5.891990662E-2,-3.025102615E-1
1.111960227E1,8.840036392E-2,6.173539162E-2,-3.365259171E-1
1.112960134E1,1.046280861E-1,3.633332253E-2,-3.443431854E-1
1.113960037E1,1.020758152E-1,2.393794060E-2,-3.260879517E-1
1.114959940E1,6.666207314E-2,-1.505255699E-3,-2.986345291E-1
1.115959834E1,4.109168053E-2,8.066892624E-3,-2.476282120E-1
1.116959720E1,6.583213806E-3,-1.528871059E-2,-1.489791870E-1
1.117959607E1,-1.243567467E-2,-7.679224014E-3,-1.098728180E-1
1.118959490E1,-3.841948509E-2,-1.978051662E-2,-9.412384033E-2
1.119959367E1,-8.912158012E-2,-1.871764660E-2,-1.181612015E-1
1.120959247E1,-1.063539982E-1,-4.716789722E-2,-1.822185516E-1
1.121959120E1,-9.030246735E-2,-4.262840748E-2,-2.288379669E-1
1.122958987E1,-7.999897003E-2,-5.035400391E-2,-2.392730713E-1
1.123958857E1,-5.255103111E-2,-6.949234009E-2,-2.690420151E-1
1.124958723E1,-5.902338028E-2,-7.373762131E-2,-2.682228088E-1
1.125958597E1,-4.084491730E-2,-7.992589474E-2,-2.657852173E-1
1.126958470E1,2.048254013E-2,-1.024008989E-1,-2.280673981E-1
1.127958343E1,1.223301888E-2,-8.643221855E-2,-1.980590820E-1
1.128958220E1,1.171469688E-2,-1.138204336E-1,-1.537618637E-1
1.129958093E1,4.456281662E-3,-1.108483076E-1,-1.477327347E-1
1.130957960E1,1.478362083E-2,-1.082044840E-1,-1.748142242E-1
1.131957830E1,1.365089417E-2,-8.697426319E-2,-1.918001175E-1
1.132957706E1,5.852937698E-3,-8.736312389E-2,-1.939878464E-1
1.133957580E1,7.849931717E-3,-6.848943233E-2,-2.435970306E-1
1.134957456E1,2.099585533E-2,-4.475665092E-2,-2.379646301E-1
1.135957333E1,9.944677353E-3,-5.235147476E-2,-2.657585144E-1
1.136957216E1,1.567363739E-3,-4.107069969E-2,-2.696199417E-1
1.137957093E1,-1.041889191E-2,-1.094937325E-3,-2.545852661E-1
1.138956969E1,-3.950572014E-2,1.012837887E-2,-2.400083542E-1
1.139956846E1,-5.253815651E-2,2.382516861E-2,-2.066688538E-1
1.140956723E1,-8.091664314E-2,3.293704987E-2,-1.928377151E-1
1.141956593E1,-9.128952026E-2,3.025937080E-2,-1.601619720E-1
1.142956469E1,-1.165618896E-1,5.629158020E-2,-2.063732147E-1
1.143956346E1,-1.021933556E-1,3.157365322E-2,-2.015571594E-1
1.144956216E1,-9.570503235E-2,3.771936893E-2,-2.085113525E-1
1.145956096E1,-6.368803978E-2,4.380011559E-2,-2.296380997E-1
1.146955972E1,-2.780532837E-2,1.141381264E-2,-2.361612320E-1
1.147955842E1,-1.436424255E-2,5.757689476E-3,-2.257966995E-1
1.148955719E1,-1.335883141E-2,-3.075897694E-2,-2.153739929E-1
1.149955596E1,4.455327988E-3,-5.212128162E-2,-2.290449142E-1
1.150955472E1,6.368160248E-4,-8.246755600E-2,-2.332258224E-1
1.151955349E1,1.062464714E-2,-8.528614044E-2,-2.039747238E-1
1.152955225E1,-1.274394989E-2,-8.983922005E-2,-1.964273453E-1
1.153955105E1,-1.917052269E-2,-1.008069515E-1,-2.153940201E-1
1.154954985E1,-1.355838776E-2,-1.158844233E-1,-2.009792328E-1
1.155954855E1,-1.528692245E-2,-1.200423241E-1,-2.011327744E-1
1.156954732E1,-7.486104965E-3,-1.451478004E-1,-1.822261810E-1
1.157954609E1,-3.602743149E-2,-1.213450432E-1,-1.801662445E-1
1.158954475E1,-2.558851242E-2,-9.505045414E-2,-1.806650162E-1
1.159954352E1,-2.927565575E-2,-6.392109394E-2,-2.099533081E-1
1.160954228E1,-5.445313454E-2,-5.747473240E-2,-2.127866745E-1
1.161954105E1,-6.259608269E-2,-2.502596378E-2,-2.108316422E-1
1.162953978E1,-4.183745384E-2,-2.001023293E-2,-2.111148834E-1
1.163953852E1,-5.686497688E-2,-6.137490273E-3,-2.184820175E-1
1.164953725E1,-7.891559601E-2,-1.475679874E-2,-2.089595795E-1
1.165953598E1,-5.728793144E-2,1.178145409E-2,-2.233791351E-1
1.166953458E1,-5.957126617E-2,-1.532280445E-2,-2.065086365E-1
1.167953332E1,-4.925918579E-2,5.809068680E-4,-2.113122940E-1
1.168953205E1,-5.078577995E-2,-2.871513367E-3,-2.304773331E-1
1.169953071E1,-6.346321106E-2,-2.361667156E-2,-2.233943939E-1
1.170952945E1,-7.794547081E-2,-3.688657284E-2,-2.356491089E-1
1.171952818E1,-6.870102882E-2,-4.730510712E-2,-2.120218277E-1
1.172952691E1,-3.822422028E-2,-4.318046570E-2,-1.907491684E-1
1.173952568E1,-2.053165436E-2,-6.017196178E-2,-1.765518188E-1
1.174952444E1,-1.021885872E-2,-6.038510799E-2,-1.599197388E-1
1.175952318E1,-6.310749054E-2,-5.743718147E-2,-1.575737000E-1
1.176952194E1,-6.762099266E-2,-6.389939785E-2,-1.769180298E-1
1.177952071E1,-9.781622887E-2,-9.630513191E-2,-2.012653351E-1
1.178951948E1,-1.089127064E-1,-7.780778408E-2,-2.161321640E-1
1.179963322E1,-1.031310558E-1,-7.377099991E-2,-2.238254547E-1
1.180963192E1,-9.276914597E-2,-5.535519123E-2,-2.314758301E-1
1.181963068E1,-7.970190048E-2,-2.525651455E-2,-2.223825455E-1
1.182962945E1,-6.679868698E-2,-2.396953106E-2,-2.347879410E-1
1.183962815E1,-5.349659920E-2,-3.994226456E-2,-2.280397415E-1
1.184962691E1,-4.003262520E-2,-4.885792732E-2,-2.524318695E-1
1.185962568E1,-5.059933662E-2,-2.180063725E-2,-2.528715134E-1
1.186962445E1,-4.875636101E-2,-3.827929497E-2,-2.413606644E-1
1.187962321E1,-7.085895538E-2,-4.480445385E-2,-2.418861389E-1
1.188962198E1,-4.926156998E-2,-1.583182812E-2,-2.257108688E-1
1.189962074E1,-5.413722992E-2,1.844406128E-3,-2.072305679E-1
1.190961951E1,-2.125215530E-2,-1.043784618E-2,-2.171440125E-1
1.191961821E1,-1.132535934E-2,2.519500256E-2,-2.147779465E-1
1.192961698E1,-4.875659943E-4,1.954698563E-2,-2.455005646E-1
1.193961578E1,-9.918928146E-3,3.485071659E-2,-2.255926132E-1
1.194961454E1,3.643512726E-3,4.479789734E-2,-2.221336365E-1
1.195961338E1,1.894712448E-3,4.478180408E-2,-2.495193481E-1
1.196961228E1,-3.263783455E-2,2.279531956E-2,-2.338943481E-1
1.197961118E1,-5.572509766E-2,-6.241321564E-3,-2.282876968E-1
1.198961008E1,-6.279778481E-2,-3.441810608E-2,-2.279872894E-1
1.199960898E1,-9.218430519E-2,-7.106781006E-2,-2.378234863E-1
1.200960788E1,-8.704996109E-2,-8.969330788E-2,-2.145862579E-1
1.201960678E1,-1.075741053E-1,-1.094777584E-1,-2.036886215E-1
1.202960561E1,-8.791565895E-2,-1.325416565E-1,-1.594181061E-1
1.203960447E1,-8.258032799E-2,-1.165868044E-1,-1.535882950E-1
1.204960334E1,-7.058906555E-2,-1.097269058E-1,-1.572990417E-1
1.205960214E1,-3.613328934E-2,-1.050392389E-1,-1.655082703E-1
1.206960101E1,-2.216291428E-2,-9.778487682E-2,-1.662654877E-1
1.207959987E1,-2.091145515E-2,-9.770679474E-2,-1.931934357E-1
1.208959867E1,-8.401632309E-3,-7.349193096E-2,-2.008390427E-1
1.209959754E1,-2.720618248E-2,-7.592189312E-2,-1.988105774E-1
1.210959640E1,-3.128886223E-2,-4.990315437E-2,-2.015972137E-1
1.211959527E1,-4.648399353E-2,-3.421127796E-2,-1.757144928E-1
1.212959414E1,-6.115865707E-2,-2.413904667E-2,-1.857156754E-1
1.213959300E1,-8.457732201E-2,-3.392684460E-2,-1.790227890E-1
1.214959187E1,-7.822656631E-2,-2.988803387E-2,-1.748619080E-1
1.215959073E1,-1.077406406E-1,-2.652287483E-2,-1.969356537E-1
1.216958953E1,-1.082390547E-1,-5.229222775E-2,-1.735105515E-1
1.217958840E1,-5.810809135E-2,-7.530212402E-2,-1.933202744E-1
1.218958727E1,-7.787704468E-2,-9.801208973E-2,-2.082901001E-1
1.219958607E1,-6.462383270E-2,-1.011072397E-1,-2.256212234E-1
1.220958493E1,-7.120728493E-2,-9.642040730E-2,-2.333269119E-1
1.221958380E1,-5.398964882E-2,-9.403634071E-2,-2.410135269E-1
1.222958266E1,-5.387902260E-2,-6.028461456E-2,-2.103576660E-1
1.223958150E1,-4.384398460E-2,-4.386830330E-2,-2.060174942E-1
1.224958030E1,-5.517101288E-2,-4.736387730E-2,-1.991949081E-1
1.225957910E1,-5.652976036E-2,-2.010905743E-2,-1.780300140E-1
1.226957783E1,-6.672883034E-2,4.132986069E-3,-1.832599640E-1
1.227957650E1,-4.364776611E-2,1.549601555E-2,-1.858892441E-1
1.228957523E1,-3.290438652E-2,2.385210991E-2,-1.787576675E-1
1.229957396E1,-1.107239723E-2,2.846717834E-3,-1.713256836E-1
1.230957263E1,-6.273269653E-3,-5.991458893E-3,-1.494998932E-1
1.231957136E1,-6.348943710E-2,-7.644057274E-3,-1.684274673E-1
1.232957009E1,-7.153820992E-2,-1.891839504E-2,-2.187566757E-1
1.233956876E1,-1.242938042E-1,-5.174493790E-2,-2.261600494E-1
1.234956749E1,-8.312368393E-2,-6.764101982E-2,-2.744150162E-1
1.235956626E1,-7.591915131E-2,-6.856513023E-2,-2.723932266E-1
1.236956502E1,-5.459547043E-2,-7.368743420E-2,-2.823896408E-1
1.237956379E1,-3.448271751E-2,-8.050382137E-2,-2.802677155E-1
1.238956256E1,4.067420959E-3,-6.741273403E-2,-2.613573074E-1
1.239956132E1,5.306434631E-2,-5.619871616E-2,-2.661428452E-1
1.240956009E1,6.663513184E-2,-4.247701168E-2,-2.633447647E-1
1.241955879E1,3.598117828E-2,-1.436984539E-2,-2.483310699E-1
1.242955756E1,-4.055142403E-2,-8.340358734E-3,-2.091960907E-1
1.243955632E1,-5.124402046E-2,4.439592361E-3,-1.822223663E-1
1.244955502E1,-7.485413551E-2,9.441018105E-3,-1.841964722E-1
1.245955379E1,-4.436445236E-2,2.616035938E-2,-2.343301773E-1
1.246955255E1,-5.646324158E-2,3.793680668E-2,-1.887769699E-1
1.247955132E1,-8.678293228E-2,4.017817974E-2,-2.104778290E-1
1.248955009E1,-1.237982512E-1,2.762258053E-2,-2.106647491E-1
1.249954885E1,-9.064924717E-2,5.323469639E-2,-2.469034195E-1
1.250954762E1,-1.154096127E-1,5.896329880E-3,-2.229957581E-1
1.251954638E1,-1.400429010E-1,-3.890991211E-2,-2.015333176E-1
1.252954508E1,-1.471217871E-1,-6.368863583E-2,-1.708154678E-1
1.253954385E1,-1.407624483E-1,-1.015069485E-1,-1.430397034E-1
1.254954262E1,-3.189301491E-2,-1.021709442E-1,-2.475833893E-1
1.255954132E1,-7.726895809E-2,-5.624115467E-2,-1.605463028E-1
1.256954008E1,-8.105456829E-2,-2.950239182E-2,-1.479167938E-1
1.257953885E1,-1.072797775E-1,1.057887077E-2,-1.498003006E-1
1.258953755E1,-8.990788460E-2,7.031428814E-2,-2.185077667E-1
1.259953631E1,-6.203198433E-2,9.410238266E-2,-3.104248047E-1
1.260953508E1,2.477693558E-2,7.774591446E-2,-3.390636444E-1
1.261953385E1,5.377554893E-2,2.948439121E-2,-3.161811829E-1
1.262953261E1,5.763888359E-2,2.748394012E-2,-2.399797440E-1
1.263953138E1,8.443856239E-2,-3.415489197E-2,-2.018985748E-1
1.264953014E1,8.075928688E-2,-5.657756329E-2,-1.162223816E-1
1.265952888E1,8.455562592E-2,-8.473742008E-2,-9.934425354E-2
1.266952754E1,1.928639412E-2,-1.065849066E-1,-1.140451431E-1
1.267952628E1,-3.282999992E-2,-1.193544865E-1,-1.528577805E-1
1.268952501E1,-1.056374311E-1,-1.324025393E-1,-2.061729431E-1
1.269952367E1,-9.456098080E-2,-1.285685301E-1,-3.098049164E-1
1.270952241E1,-1.249375343E-1,-1.121613979E-1,-3.008460999E-1
1.271952114E1,-2.138938904E-1,-7.770085335E-2,-2.032785416E-1
1.272951987E1,-1.927939653E-1,-9.067738056E-2,-2.446393967E-1
1.273951861E1,-1.291918755E-1,-1.010620594E-1,-2.404127121E-1
1.274951737E1,-6.645584106E-2,-1.278319359E-1,-2.336692810E-1
1.275951614E1,-9.966611862E-3,-1.664545536E-1,-2.266330719E-1
1.276951490E1,3.198933601E-2,-1.929175854E-1,-2.387437820E-1
1.277951360E1,6.452322006E-2,-2.053159475E-1,-1.993837357E-1
1.278951237E1,8.823442459E-2,-2.358717918E-1,-1.909513474E-1
1.279951114E1,5.119919777E-2,-1.914538145E-1,-1.561059952E-1
1.280950984E1,4.764485359E-2,-1.761347055E-1,-1.762437820E-1
1.281950860E1,2.934074402E-2,-1.426969767E-1,-1.745672226E-1
1.282950737E1,-8.497238159E-4,-9.102737904E-2,-1.895065308E-1
1.283950607E1,-4.744839668E-2,-4.101765156E-2,-2.114248276E-1
1.284950483E1,-7.429444790E-2,-9.953379631E-3,-2.019863129E-1
1.285950360E1,-9.317314625E-2,3.371083736E-2,-1.924285889E-1
1.286950237E1,-1.033837795E-1,3.694045544E-2,-1.708784103E-1
1.287950113E1,-1.291514635E-1,6.760573387E-2,-1.589555740E-1
1.288949990E1,-1.722980738E-1,7.293117046E-2,-1.663475037E-1
1.289949866E1,-1.895902157E-1,6.520485878E-2,-1.691904068E-1
1.290949743E1,-2.077530622E-1,4.217147827E-2,-1.961488724E-1
1.291949613E1,-1.892323494E-1,1.855266094E-2,-2.231731415E-1
1.292949490E1,-1.558495760E-1,9.229063988E-3,-2.478914261E-1
1.293949366E1,-1.298437119E-1,1.476418972E-2,-2.606706619E-1
1.294949236E1,-7.801461220E-2,-3.929996490E-2,-2.781648636E-1
1.295949113E1,-2.501308918E-2,-2.036643028E-2,-2.596721649E-1
1.296948989E1,2.348423004E-3,-2.468574047E-2,-2.481107712E-1
1.297948866E1,5.467677116E-2,-5.497837067E-2,-2.578649521E-1
1.298948746E1,5.742216110E-2,-4.894244671E-2,-2.194414139E-1
1.299948636E1,4.435181618E-2,-3.520643711E-2,-2.430458069E-1
1.300948526E1,1.080441475E-2,-1.227056980E-2,-2.399692535E-1
1.301948423E1,1.001477242E-2,-2.104163170E-2,-2.150840759E-1
1.302948316E1,9.037971497E-3,-5.925059319E-3,-2.045135498E-1
1.303948216E1,7.651567459E-3,1.397883892E-2,-2.154026031E-1
1.304948116E1,-7.929563522E-3,2.897918224E-2,-1.975746155E-1
1.305948012E1,-1.612496376E-2,2.199971676E-2,-2.012653351E-1
1.306947916E1,-4.338610172E-2,2.444314957E-2,-2.001600266E-1
1.307947826E1,-4.842162132E-2,1.236069202E-2,-2.087478638E-1
1.308947729E1,-7.426309586E-2,-2.372872829E-2,-2.055149078E-1
1.309947639E1,-8.205151558E-2,-4.687988758E-2,-1.979312897E-1
1.310947549E1,-9.355580807E-2,-6.188833714E-2,-1.955299377E-1
1.311947459E1,-8.688998222E-2,-8.323454857E-2,-1.959686279E-1
1.312947369E1,-8.660697937E-2,-9.188020229E-2,-1.919136047E-1
1.313947279E1,-5.929660797E-2,-1.068919897E-1,-2.168741226E-1
1.314947189E1,-8.284962177E-2,-9.501254559E-2,-2.465906143E-1
1.315947099E1,-8.985292912E-2,-8.041238785E-2,-2.332172394E-1
1.316947002E1,-5.172657967E-2,-7.036602497E-2,-2.269859314E-1
1.317946912E1,-4.548180103E-2,-3.415822983E-2,-2.253513336E-1
1.318946822E1,-4.000842571E-2,-2.266144753E-2,-2.449712753E-1
1.319946726E1,-5.709385872E-2,-3.075277805E-2,-2.331781387E-1
1.320946636E1,-3.156197071E-2,-2.285397053E-2,-2.235469818E-1
1.321946546E1,-4.406619072E-2,-3.181064129E-2,-2.307186127E-1
1.322946456E1,-3.690671921E-2,-7.192862034E-2,-2.284173965E-1
1.323946366E1,-3.644180298E-2,-7.364225388E-2,-2.286291122E-1
1.324946276E1,-3.345346451E-2,-9.594845772E-2,-2.122678757E-1
1.325946186E1,-3.767907619E-2,-9.136748314E-2,-2.319040298E-1
1.326946096E1,-4.881834984E-2,-8.657753468E-2,-2.420558929E-1
1.327945999E1,-4.136562347E-2,-5.066668987E-2,-2.377204895E-1
1.328945906E1,-4.405462742E-2,-3.920269012E-2,-2.259960175E-1
1.329945802E1,-3.506469727E-2,-3.767073154E-2,-2.165451050E-1
1.330945692E1,-4.101026058E-2,4.312396049E-3,-2.093257904E-1
1.331945582E1,-4.211819172E-2,-7.006287575E-3,-2.211675644E-1
1.332945469E1,-4.284536839E-2,-1.603245735E-2,-2.091312408E-1
1.333945349E1,-4.602336884E-2,-2.827429771E-2,-2.017364502E-1
1.334945232E1,-6.543195248E-2,-2.537620068E-2,-1.897916794E-1
1.335945112E1,-8.474445343E-2,-1.077461243E-2,-2.041616440E-1
1.336944992E1,-9.860467911E-2,1.299273968E-2,-2.281847000E-1
1.337944865E1,-1.065361500E-1,-4.662275314E-3,-2.140254974E-1
1.338944739E1,-1.041469574E-1,1.314401627E-3,-2.071542740E-1
1.339944612E1,-9.183835983E-2,-7.405877113E-3,-2.481880188E-1
1.340944485E1,-8.012163639E-2,-3.292798996E-2,-2.340183258E-1
1.341944355E1,-3.523826599E-2,-5.078637600E-2,-2.342185974E-1
1.342944232E1,-2.985954285E-3,-6.583273411E-2,-2.056140900E-1
1.343944108E1,1.100993156E-2,-3.689396381E-2,-1.792335510E-1
1.344943979E1,-2.309978008E-2,-4.875230789E-2,-1.791267395E-1
1.345943855E1,-3.740298748E-2,-2.453637123E-2,-1.791849136E-1
1.346943732E1,-8.670544624E-2,-3.887915611E-2,-2.105236053E-1
1.347943608E1,-1.140232086E-1,-1.249814034E-2,-2.371683121E-1
1.348943485E1,-1.096073389E-1,-1.775515079E-2,-2.518854141E-1
1.349943362E1,-1.009141207E-1,-3.273999691E-2,-2.377386093E-1
1.350943238E1,-5.895042419E-2,-4.008102417E-2,-2.212209702E-1
1.351943115E1,-3.174364567E-2,-3.977978230E-2,-2.166671753E-1
1.352942985E1,-2.707004547E-2,-5.601584911E-2,-2.119407654E-1
1.353942861E1,-2.529156208E-2,-3.823971748E-2,-2.095832825E-1
1.354942738E1,-2.335989475E-2,-6.406211853E-2,-2.167520523E-1
1.355942608E1,-2.701413631E-2,-9.689986706E-2,-2.189912796E-1
1.356942484E1,-4.055964947E-2,-9.279239178E-2,-2.165451050E-1
1.357942361E1,-5.358481407E-2,-9.556972980E-2,-2.310171127E-1
1.358942231E1,-4.764008522E-2,-1.025738716E-1,-2.144155502E-1
1.359942108E1,-2.926790714E-2,-7.796871662E-2,-2.027788162E-1
1.360941984E1,-1.855969429E-2,-7.029807568E-2,-2.197408676E-1
1.361941861E1,-1.798987389E-2,-2.914047241E-2,-2.222108841E-1
1.362941738E1,-1.781415939E-2,-1.028156281E-2,-2.101097107E-1
1.363941614E1,1.361846924E-3,1.001858711E-2,-2.002115250E-1
1.364941491E1,1.090145111E-2,-4.279732704E-3,-1.925201416E-1
1.365941367E1,2.255892754E-2,7.182478905E-3,-2.253761292E-1
1.366941237E1,3.134775162E-2,-1.765859127E-2,-1.910276413E-1
1.367941114E1,6.129980087E-3,-1.597988605E-2,-1.589965820E-1
1.368940991E1,-4.072427750E-3,-4.548811913E-2,-2.037115097E-1
1.369940860E1,-8.763313293E-3,-6.972348690E-2,-1.935920715E-1
1.370940737E1,-3.290915489E-2,-7.894241810E-2,-1.978788376E-1
1.371940610E1,-4.000711441E-2,-7.566213608E-2,-1.975240707E-1
1.372940484E1,-6.359589100E-2,-6.233239174E-2,-2.308244705E-1
1.373940357E1,-7.216513157E-2,-3.693139553E-2,-2.140007019E-1
1.374940230E1,-9.210896492E-2,-1.186120510E-2,-2.499275208E-1
1.375940104E1,-8.270239830E-2,1.022696495E-2,-2.451906204E-1
1.376939977E1,-8.557438850E-2,9.961962700E-3,-2.258892059E-1
1.377939844E1,-1.169151068E-1,3.055489063E-2,-2.185049057E-1
1.378939720E1,-9.697413445E-2,1.170980930E-2,-2.231245041E-1
1.379939597E1,-7.438373566E-2,9.197831154E-3,-2.157583237E-1
1.380939463E1,-3.023433685E-2,6.546616554E-3,-2.299175262E-1
1.381939337E1,-2.963209152E-2,-1.986706257E-2,-2.080955505E-1
1.382939213E1,-2.703690529E-2,-1.696944237E-2,-2.030410767E-1
1.383939083E1,-1.969933510E-2,-3.775072098E-2,-1.980190277E-1
1.384938960E1,-1.240324974E-2,-5.542039871E-2,-2.002868652E-1
1.385938836E1,-2.787470818E-2,-6.771504879E-2,-2.023897171E-1
1.386938713E1,-7.361888885E-3,-6.755256653E-2,-2.069807053E-1
1.387938590E1,-2.128529549E-2,-6.937551498E-2,-1.970748901E-1
1.388938466E1,-3.995871544E-2,-4.255878925E-2,-1.704015732E-1
1.389938343E1,-3.455328941E-2,-3.990948200E-2,-2.155485153E-1
1.390938219E1,-3.174853325E-2,-1.836717129E-2,-2.246932983E-1
1.391938089E1,6.429338455E-2,-4.522669315E-2,-2.840023041E-1
1.392937966E1,-6.469130516E-2,2.386569977E-3,-1.752386093E-1
1.393937843E1,-1.490601301E-1,4.190087318E-3,-1.673126221E-1
1.394937713E1,-1.366641521E-1,8.338451385E-3,-1.984252930E-1
1.395937589E1,-7.921826839E-2,-3.316247463E-2,-2.514867783E-1
1.396937466E1,3.122258186E-2,-5.259871483E-2,-2.663946152E-1
1.397937342E1,-8.001959324E-2,-4.924452305E-2,-1.590900421E-1
1.398937219E1,-1.389311552E-1,-1.482141018E-2,-1.456003189E-1
1.399937096E1,-1.606249809E-1,-3.166913986E-2,-1.777181625E-1
1.400936972E1,-9.363460541E-2,-1.103425026E-2,-2.432413101E-1
1.401936849E1,-2.113747597E-2,-2.909004688E-2,-1.886224747E-1
1.402936719E1,-2.486848831E-2,-4.667615891E-2,-1.671657562E-1
1.403936595E1,-2.456164360E-2,-5.866158009E-2,-1.744127274E-1
1.404936472E1,-5.292534828E-2,-4.417371750E-2,-1.649351120E-1
1.405936342E1,-5.179738998E-2,-6.491923332E-2,-2.179851532E-1
1.406936219E1,-7.927107811E-2,-6.388044357E-2,-2.160320282E-1
1.407936099E1,-5.095922947E-2,-6.978392601E-2,-2.262439728E-1
1.408935979E1,-4.688882828E-2,-6.105554104E-2,-2.340421677E-1
1.409935865E1,-4.128110409E-2,-5.679857731E-2,-2.345237732E-1
1.410935762E1,-3.610038757E-2,-4.832887650E-2,-2.443952560E-1
1.411935658E1,-1.751804352E-2,-3.508651257E-2,-2.277202606E-1
1.412935555E1,-1.389265060E-2,-1.507139206E-2,-2.180337906E-1
1.413935455E1,-2.501988411E-2,-5.500316620E-4,-2.177257538E-1
1.414935355E1,-2.659106255E-2,-1.055479050E-3,-2.029390335E-1
1.415935262E1,-2.794289589E-2,-2.075433731E-3,-2.264232635E-1
1.416935162E1,-4.371404648E-2,-1.811563969E-2,-1.947202682E-1
1.417935068E1,-3.984665871E-2,-3.126406670E-2,-1.919345856E-1
1.418934975E1,-4.289650917E-2,-3.925585747E-2,-2.012367249E-1
1.419934875E1,-4.846549034E-2,-3.265595436E-2,-2.057619095E-1
1.420934781E1,-3.720092773E-2,-2.103745937E-2,-1.887912750E-1
1.421934688E1,-3.758001328E-2,-3.338885307E-2,-2.101955414E-1
1.422934595E1,-5.210554600E-2,-1.708030701E-2,-1.981153488E-1
1.423934501E1,-4.010152817E-2,-1.764774323E-2,-2.100009918E-1
1.424934408E1,-5.920493603E-2,-9.126543999E-3,-2.146263123E-1
1.425934314E1,-6.109368801E-2,-2.926123142E-2,-2.002086639E-1
1.426934221E1,-4.588389397E-2,-1.805710793E-2,-1.954765320E-1
1.427934121E1,-3.285145760E-2,-3.538739681E-2,-1.812467575E-1
1.428934028E1,-1.982164383E-2,-2.622282505E-2,-2.173213959E-1
1.429933934E1,-3.593564034E-2,-4.115402699E-2,-2.125778198E-1
1.430933834E1,-1.115679741E-2,-2.948999405E-2,-2.174978256E-1
1.431933741E1,-3.746128082E-2,-4.401957989E-2,-2.198705673E-1
1.432933647E1,-4.668366909E-2,-2.743446827E-2,-2.175254822E-1
1.433933547E1,-4.688847065E-2,-2.057516575E-2,-2.030611038E-1
1.434933454E1,-5.672705173E-2,-3.290998936E-2,-2.149171829E-1
1.435933364E1,-7.298684120E-2,-4.260158539E-2,-2.317667007E-1
1.436933271E1,-6.107723713E-2,-6.006610394E-2,-2.316360474E-1
1.437933174E1,-4.952740669E-2,-6.032872200E-2,-2.338972092E-1
1.438933067E1,-6.165111065E-2,-4.804122448E-2,-2.219448090E-1
1.439932960E1,-5.932664871E-2,-7.182812691E-2,-2.147722244E-1
1.440932847E1,-6.831586361E-2,-6.366336346E-2,-2.054843903E-1
1.441932727E1,-9.300780296E-2,-5.059134960E-2,-2.012300491E-1
1.442932610E1,-6.211256981E-2,-7.318627834E-2,-2.210731506E-1
1.443932490E1,-8.142232895E-2,-4.032576084E-2,-2.074747086E-1
1.444932367E1,-6.996905804E-2,-4.152846336E-2,-2.176504135E-1
1.445932240E1,-5.416882038E-2,-4.054558277E-2,-2.181196213E-1
1.446932114E1,-7.035613060E-2,-4.221165180E-2,-2.016019821E-1
1.447931987E1,-5.543327332E-2,-3.540873528E-3,-2.065696716E-1
1.448931860E1,-5.723869801E-2,-2.073526382E-2,-2.353553772E-1
1.449931734E1,-3.009700775E-2,-1.459074020E-2,-2.569065094E-1
1.450931607E1,1.156153679E-1,-4.191899300E-2,-2.997684479E-1
1.451931480E1,-1.121997833E-2,-2.564203739E-2,-2.321491241E-1
1.452931350E1,-1.009272337E-1,-4.126071930E-3,-1.935939789E-1
1.453931223E1,-9.975421429E-2,2.912783623E-2,-2.488708496E-1
1.454931100E1,-9.075176716E-2,5.647063255E-2,-2.179079056E-1
1.455930970E1,-9.371507168E-2,6.848537922E-2,-1.891803741E-1
1.456930847E1,-5.598437786E-2,9.643864632E-2,-1.986236572E-1
1.457930723E1,-3.827488422E-2,7.555878162E-2,-1.909637451E-1
1.458930593E1,5.604267120E-3,3.014171124E-2,-1.783771515E-1
1.459930470E1,1.083588600E-1,-6.050312519E-2,-2.206916809E-1
1.460930346E1,1.342387199E-1,-1.230500937E-1,-1.693534851E-1
1.461930223E1,7.294273376E-2,-1.733641624E-1,-1.278219223E-1
1.462930100E1,-2.848863602E-3,-2.000129223E-1,-1.775970459E-1
1.463929976E1,-9.732234478E-2,-1.812790632E-1,-1.967277527E-1
1.464929853E1,-1.280496120E-1,-1.805919409E-1,-2.618503571E-1
1.465929726E1,-1.386238337E-1,-1.696873903E-1,-2.722234726E-1
1.466929596E1,-1.482325792E-1,-1.466759443E-1,-2.684574127E-1
1.467929473E1,-1.336719990E-1,-1.212528944E-1,-2.791032791E-1
1.468929349E1,-1.208786964E-1,-1.390746832E-1,-2.563362122E-1
1.469929219E1,-1.050642729E-1,-1.137630939E-1,-2.361011505E-1
1.470929096E1,-7.468616962E-2,-9.593641758E-2,-2.086725235E-1
1.471928973E1,-5.399537086E-2,-7.199704647E-2,-2.217473984E-1
1.472928849E1,-2.687168121E-2,-6.602799892E-2,-1.937589645E-1
1.473928726E1,-5.098235607E-2,-4.660093784E-2,-1.678152084E-1
1.474928599E1,-7.493638992E-2,-4.074215889E-3,-1.657104492E-1
1.475928476E1,-1.055052280E-1,1.811170578E-2,-1.659317017E-1
1.476928352E1,-1.303778887E-1,4.894983768E-2,-1.518354416E-1
1.477928222E1,-1.421624422E-1,1.072434187E-1,-1.521387100E-1
1.478928099E1,-1.480950117E-1,1.278406382E-1,-2.002668381E-1
1.479927975E1,-1.266578436E-1,1.177003384E-1,-1.980123520E-1
1.480927845E1,-8.640229702E-2,1.091965437E-1,-2.362594604E-1
1.481927722E1,-6.801891327E-2,9.500288963E-2,-2.383708954E-1
1.482927595E1,-2.439510822E-2,9.734594822E-2,-2.306308746E-1
1.483927465E1,4.143238068E-3,6.355309486E-2,-2.514257431E-1
1.484927339E1,1.013040543E-2,3.519308567E-2,-2.625303268E-1
1.485927212E1,3.437662125E-2,-4.195332527E-3,-2.424707413E-1
1.486927085E1,6.504297256E-2,-5.910217762E-2,-2.200574875E-1
1.487926959E1,3.257870674E-2,-8.155488968E-2,-1.857061386E-1
1.488926832E1,4.107713699E-3,-9.540295601E-2,-1.705741882E-1
1.489926705E1,4.428386688E-3,-9.169149399E-2,-1.771364212E-1
1.490926578E1,-8.615493774E-3,-9.488284588E-2,-2.073917389E-1
1.491926445E1,-2.453064919E-2,-9.513735771E-2,-2.089014053E-1
1.492926318E1,-4.835736752E-2,-1.092542410E-1,-2.414636612E-1
1.493926192E1,-4.347717762E-2,-1.129648685E-1,-2.430315018E-1
1.494926062E1,-4.580354691E-2,-1.324446201E-1,-2.710933685E-1
1.495925938E1,-4.308438301E-2,-1.125433445E-1,-2.634706497E-1
1.496925818E1,-4.491734505E-2,-1.016529799E-1,-2.655696869E-1
1.497925695E1,-4.096341133E-2,-8.340811729E-2,-2.559366226E-1
1.498925571E1,-3.624105453E-2,-5.794894695E-2,-2.273178101E-1
1.499925448E1,-6.872296333E-2,-4.243886471E-2,-1.964826584E-1
1.500925325E1,-7.383334637E-2,-2.258050442E-2,-1.657962799E-1
1.501925201E1,-4.431152344E-2,-3.465902805E-2,-1.687383652E-1
1.502925071E1,-5.085563660E-2,-1.154160500E-2,-1.451921463E-1
1.503924948E1,-6.038975716E-2,8.390307426E-3,-1.429338455E-1
1.504924824E1,-7.239782810E-2,2.437233925E-2,-1.308269501E-1
1.505924694E1,-4.872035980E-2,4.628562927E-2,-1.567735672E-1
1.506924571E1,-1.803898811E-2,5.732691288E-2,-1.944389343E-1
1.507924448E1,9.398937225E-3,6.965756416E-2,-2.077951431E-1
1.508924318E1,-9.696722031E-3,7.688641548E-2,-2.472076416E-1
1.509924194E1,-7.540702820E-3,8.354020119E-2,-2.840614319E-1
1.510924071E1,-1.278424263E-2,6.349158287E-2,-2.489767075E-1
1.511923947E1,1.140546799E-2,4.611897469E-2,-2.380285263E-1
1.512923824E1,1.179885864E-2,9.853482246E-3,-2.199716568E-1
1.513923701E1,-2.149820328E-3,-1.136040688E-2,-2.044258118E-1
1.514923577E1,-1.123547554E-2,-2.736377716E-2,-2.033300400E-1
1.515923454E1,-2.519488335E-2,-2.155375481E-2,-2.046527863E-1
1.516923327E1,-3.872799873E-2,-1.268494129E-2,-2.253332138E-1
1.517923207E1,-6.662964821E-2,-2.281355858E-2,-2.220945358E-1
1.518923090E1,-5.833864212E-2,-8.534789085E-3,-2.022380829E-1
1.519922974E1,-3.972148895E-2,-6.392717361E-3,-1.705427170E-1
1.520922864E1,-1.647543907E-2,-1.565468311E-2,-1.867942810E-1
1.521922754E1,-2.429246902E-2,-8.047461510E-3,-1.719541550E-1
1.522922644E1,-1.749897003E-2,-4.787874222E-2,-2.147045135E-1
1.523922534E1,-4.695439339E-2,-5.823874474E-2,-2.503261566E-1
1.524922420E1,-5.962657928E-2,-7.503235340E-2,-2.645311356E-1
1.525922307E1,-6.078171730E-2,-1.222919226E-1,-2.643842697E-1
1.526922190E1,-5.941867828E-2,-1.419380903E-1,-2.501173019E-1
1.527922070E1,-4.596543312E-2,-1.530424356E-1,-2.408952713E-1
1.528921957E1,-3.719043732E-2,-1.487293243E-1,-1.792020798E-1
1.529921843E1,-3.292965889E-2,-1.364265680E-1,-1.703786850E-1
1.530921723E1,-2.411317825E-2,-1.190907955E-1,-1.471748352E-1
1.531921610E1,-2.773928642E-2,-1.042371988E-1,-1.286401749E-1
1.532921497E1,-6.723499298E-2,-8.985841274E-2,-1.579170227E-1
1.533921377E1,-7.732391357E-2,-5.168199539E-2,-1.801319122E-1
1.534921263E1,-9.641981125E-2,-1.934742928E-2,-1.975078583E-1
1.535921150E1,-1.126195192E-1,1.709306240E-2,-2.436094284E-1
1.536921036E1,-1.015694141E-1,1.629209518E-2,-2.537765503E-1
1.537920923E1,-1.021116972E-1,1.226305962E-2,-2.447338104E-1
1.538920810E1,-8.540022373E-2,1.228845119E-2,-2.452554703E-1
1.539920696E1,-7.836008072E-2,2.074599266E-3,-2.264900208E-1
1.540920583E1,-7.145714760E-2,-1.885294914E-3,-2.171163559E-1
1.541920463E1,-3.368282318E-2,1.780080795E-2,-2.148189545E-1
1.542920349E1,-3.038692474E-2,2.939486504E-2,-2.073726654E-1
1.543920236E1,-2.967667580E-2,1.178383827E-2,-1.950130463E-1
1.544920116E1,-2.938461304E-2,-3.294825554E-3,-1.873741150E-1
1.545920003E1,-9.993553162E-3,-5.991101265E-3,-2.157049179E-1
1.546919886E1,-8.018255234E-3,-4.904186726E-2,-2.200059891E-1
1.547919769E1,-1.859593391E-2,-4.835963249E-2,-2.266817093E-1
1.548919649E1,-2.197742462E-2,-4.715931416E-2,-2.023210526E-1
1.549919523E1,-2.550649643E-2,-5.979144573E-2,-2.043542862E-1
1.550919396E1,-3.350615501E-2,-4.805696011E-2,-2.232885361E-1
1.551919269E1,-2.714300156E-2,-6.731200218E-2,-2.350645065E-1
1.552919136E1,-3.558230400E-2,-7.183313370E-2,-2.300434113E-1
1.553919009E1,-2.541184425E-2,-5.910038948E-2,-2.225933075E-1
1.554918882E1,-2.766251564E-2,-6.062495708E-2,-2.366113663E-1
1.555918749E1,-3.527164459E-2,-3.830850124E-2,-2.289342880E-1
1.556918622E1,-5.454730988E-2,-2.602291107E-2,-2.092771530E-1
1.557918499E1,-5.185866356E-2,-2.140235901E-2,-2.135744095E-1
1.558918369E1,-4.137873650E-2,-1.892495155E-2,-2.036819458E-1
1.559918245E1,-5.214977264E-2,-1.699197292E-2,-2.272815704E-1
1.560918122E1,-4.059147835E-2,-1.487243176E-2,-2.055969238E-1
1.561917999E1,-4.546856880E-2,-1.812052727E-2,-1.910667419E-1
1.562917875E1,-7.642078400E-2,-2.648270130E-2,-1.980895996E-1
1.563917752E1,-5.667161942E-2,-3.945052624E-2,-2.148122787E-1
1.564917628E1,-5.212426186E-2,-2.347695827E-2,-2.170209885E-1
1.565917505E1,-5.934357643E-2,-3.158450127E-2,-2.503757477E-1
1.566917375E1,-6.701683998E-2,-2.022016048E-2,-2.334051132E-1
1.567917252E1,-7.913208008E-2,-2.077102661E-2,-2.213077545E-1
1.568917128E1,-6.410789490E-2,-3.566539288E-2,-1.950273514E-1
1.569916998E1,-5.615854263E-2,-4.554927349E-2,-1.783847809E-1
1.570916875E1,-5.542969704E-2,-5.534601212E-2,-1.880865097E-1
1.571916751E1,-6.211280823E-2,-3.621339798E-2,-1.690397263E-1
1.572916628E1,-6.857824326E-2,-5.327284336E-2,-1.906948090E-1
1.573916505E1,-4.117155075E-2,-4.609727859E-2,-1.837472916E-1
1.574916381E1,-6.210422516E-2,-2.440452576E-2,-2.102460861E-1
1.575916258E1,-5.196547508E-2,-7.595539093E-3,-2.247428894E-1
1.576916134E1,-5.853629112E-2,-1.492106915E-2,-2.152767181E-1
1.577916004E1,-4.568171501E-2,-3.655314445E-3,-2.416896820E-1
1.578915881E1,-4.321026802E-2,-1.885795593E-2,-2.511425018E-1
1.579915761E1,-1.714897156E-2,-2.895116806E-3,-2.341871262E-1
1.580915631E1,3.276824951E-3,-1.614415646E-2,-2.265386581E-1
1.581915508E1,2.277684212E-2,-1.984727383E-2,-1.803731918E-1
1.582915384E1,1.324057579E-2,-1.165676117E-2,-1.820106506E-1
1.583915254E1,-1.993703842E-2,-3.719329834E-2,-1.477642059E-1
1.584915131E1,-7.563042641E-2,-4.767811298E-2,-1.929626465E-1
1.585915007E1,-1.063407660E-1,-5.053794384E-2,-2.049465179E-1
1.586914887E1,-1.314258575E-1,-8.192527294E-2,-2.123622894E-1
1.587914761E1,-1.074521542E-1,-8.386862278E-2,-1.962165833E-1
1.588914634E1,-7.621145248E-2,-6.854617596E-2,-2.089052200E-1
1.589914507E1,-5.001783371E-2,-6.963443756E-2,-2.144136429E-1
1.590914381E1,-3.687763214E-2,-3.481161594E-2,-2.388362885E-1
1.591914247E1,-5.480051041E-3,-3.137326241E-2,-2.247066498E-1
1.592914120E1,1.052856445E-2,-3.309810162E-2,-2.366266251E-1
1.593913994E1,4.202842712E-3,-3.011727333E-2,-2.268104553E-1
1.594913860E1,4.499197006E-3,-3.245306015E-2,-1.808652878E-1
1.595913734E1,2.367377281E-2,-8.501660824E-2,-1.564168930E-1
1.596913607E1,-3.170013428E-3,-1.087538004E-1,-1.151056290E-1
1.597913480E1,-5.484104156E-3,-1.445780993E-1,-1.361570358E-1
1.598913357E1,-1.504111290E-2,-1.438976526E-1,-1.668710709E-1
1.599913234E1,-5.850410461E-2,-1.210572720E-1,-2.502746582E-1
1.600913110E1,-7.812190056E-2,-7.396292686E-2,-3.097677231E-1
1.601912987E1,-9.985995293E-2,-3.117322922E-4,-3.190774918E-1
1.602912857E1,-9.455919266E-2,6.319320202E-2,-2.925329208E-1
1.603912733E1,-9.971427917E-2,1.015052795E-1,-2.373828888E-1
1.604912613E1,-7.491135597E-2,1.284403801E-1,-1.822023392E-1
1.605912483E1,-4.944586754E-2,1.153262854E-1,-1.795492172E-1
1.606912360E1,-4.559707642E-2,7.634031773E-2,-1.621847153E-1
1.607912236E1,-3.766918182E-2,7.033956051E-2,-1.972417831E-1
1.608912106E1,-3.338789940E-2,1.622188091E-2,-2.367649078E-1
1.609911980E1,-2.984642982E-2,-3.882646561E-3,-2.666263580E-1
1.610911856E1,-4.595732689E-2,-3.516995907E-2,-2.510175705E-1
1.611911733E1,-2.589082718E-2,-3.623878956E-2,-2.285404205E-1
1.612911610E1,-2.229380608E-2,-5.349338055E-2,-2.373495102E-1
1.613911486E1,-1.632094383E-2,-3.174960613E-2,-2.271203995E-1
1.614911363E1,-4.651904106E-2,-1.442873478E-2,-2.168960571E-1
1.615911239E1,-5.733418465E-2,-6.948232651E-3,-2.330150604E-1
1.616911106E1,-7.986354828E-2,2.662837505E-2,-2.443580627E-1
1.617910983E1,-7.582640648E-2,2.660095692E-2,-2.341909409E-1
1.618910859E1,-7.601284981E-2,2.630436420E-2,-2.288904190E-1
1.619910729E1,-5.684018135E-2,2.369248867E-2,-2.140712738E-1
1.620910606E1,-5.200123787E-2,-5.215287209E-3,-2.184200287E-1
1.621910486E1,-5.680155754E-2,-2.130949497E-2,-2.013549805E-1
1.622910366E1,-4.419112206E-2,-3.213083744E-2,-2.060680389E-1
1.623910256E1,-5.320382118E-2,-6.637322903E-2,-1.988840103E-1
1.624910152E1,-5.743312836E-2,-6.865048409E-2,-1.942424774E-1
1.625910046E1,-5.430078506E-2,-9.183609486E-2,-1.849632263E-1
1.626909946E1,-3.416514397E-2,-7.866704464E-2,-1.734228134E-1
1.627909842E1,-2.348947525E-2,-7.953250408E-2,-1.811199188E-1
1.628909742E1,-2.343845367E-2,-8.464062214E-2,-2.054367065E-1
1.629909649E1,-2.150011063E-2,-6.332886219E-2,-1.961355209E-1
1.630909549E1,-1.781082153E-2,-7.075738907E-2,-2.082366943E-1
1.631909456E1,-1.696395874E-2,-7.090115547E-2,-2.322263718E-1
1.632909362E1,-2.174854279E-3,-8.083164692E-2,-2.321405411E-1
1.633909262E1,-1.167249680E-2,-5.455112457E-2,-2.368164062E-1
1.634909165E1,-2.816295624E-2,-6.657898426E-2,-2.271680832E-1
1.635909072E1,-1.810646057E-2,-6.920409203E-2,-2.103538513E-1
1.636908979E1,-4.669857025E-2,-9.279215336E-2,-1.983509064E-1
1.637908885E1,-7.229185104E-2,-8.259510994E-2,-1.865301132E-1
1.638908792E1,-7.315039635E-2,-7.950139046E-2,-1.892642975E-1
1.639908698E1,-8.795332909E-2,-6.724214554E-2,-2.016000748E-1
1.640908605E1,-7.814121246E-2,-3.855633736E-2,-2.188177109E-1
1.641908505E1,-6.814694405E-2,-3.921401501E-2,-2.335767746E-1
1.642908412E1,-5.133175850E-2,-1.374673843E-2,-2.218790054E-1
1.643908318E1,-3.298044205E-3,-1.746487617E-2,-1.957588196E-1
1.644908222E1,1.535058022E-2,-9.665012360E-3,-1.646261215E-1
1.645908128E1,-1.906847954E-2,-1.465654373E-2,-1.595993042E-1
1.646908035E1,-4.571866989E-2,-1.479661465E-2,-1.738710403E-1
1.647907941E1,-7.425355911E-2,-3.413796425E-2,-2.193737030E-1
1.648907848E1,-7.585167885E-2,-3.173744678E-2,-2.363147736E-1
1.649907755E1,-6.788921356E-2,-3.638184071E-2,-2.317266464E-1
1.650907661E1,-7.234477997E-2,-3.344333172E-2,-2.342891693E-1
1.651907564E1,-5.739331245E-2,-1.923465729E-2,-2.343940735E-1
1.652907461E1,-8.097863197E-2,-1.244723797E-2,-2.320127487E-1
1.653907354E1,-6.621289253E-2,-5.848884583E-3,-2.511577606E-1
1.654907241E1,-5.863547325E-2,9.934782982E-3,-2.510786057E-1
1.655907124E1,-6.563878059E-2,1.115608215E-2,-2.269744873E-1
1.656907008E1,-6.802797318E-2,-1.924884319E-2,-1.835899353E-1
1.657906888E1,-5.554103851E-2,-2.558445930E-2,-1.810464859E-1
1.658906761E1,-3.078413010E-2,-7.498300076E-2,-1.666021347E-1
1.659906634E1,-3.716468811E-2,-7.326173782E-2,-1.762447357E-1
1.660906507E1,-4.423213005E-2,-7.350933552E-2,-1.834106445E-1
1.661906381E1,-5.057430267E-2,-8.264815807E-2,-2.171945572E-1
1.662906254E1,-4.766154289E-2,-6.923484802E-2,-2.127714157E-1
1.663906127E1,-6.891965866E-2,-5.803751945E-2,-2.179040909E-1
1.664906001E1,-6.146192551E-2,-3.279638290E-2,-2.086114883E-1
1.665905874E1,-4.437446594E-2,-2.726137638E-2,-2.136030197E-1
1.666905740E1,-3.465676308E-2,-1.981639862E-2,-2.232570648E-1
1.667905614E1,-3.011107445E-2,-2.700352669E-2,-2.303838730E-1
1.668905487E1,-3.989720345E-2,-3.655576706E-2,-2.207641602E-1
1.669905357E1,-4.248237610E-2,-2.891576290E-2,-2.231950760E-1
1.670905234E1,-3.554391861E-2,-2.883052826E-2,-2.351264954E-1
1.671905110E1,-2.139258385E-2,-4.560327530E-2,-2.063446045E-1
1.672904987E1,-4.259085655E-2,-4.787576199E-2,-2.208089828E-1
1.673904864E1,-4.488253593E-2,-1.660406590E-2,-1.993093491E-1
1.674904737E1,-4.954385757E-2,-2.618503571E-2,-2.208852768E-1
1.675904613E1,-5.184578896E-2,-3.095972538E-2,-2.233028412E-1
1.676904490E1,-6.841325760E-2,-1.911437511E-2,-2.305068970E-1
1.677904360E1,-7.336974144E-2,-2.830719948E-2,-2.113819122E-1
1.678904237E1,-5.926465988E-2,-2.841639519E-2,-2.160921097E-1
1.679904113E1,-5.950450897E-2,-3.591382504E-2,-2.351388931E-1
1.680903983E1,-3.107333183E-2,-3.849864006E-2,-2.158842087E-1
1.681903860E1,-1.237702370E-2,-2.664029598E-2,-2.277326584E-1
1.682903736E1,-1.776099205E-2,-1.476788521E-2,-2.323703766E-1
1.683903606E1,-2.555871010E-2,-2.931070328E-2,-2.154426575E-1
1.684903483E1,-3.072547913E-2,-4.620778561E-2,-2.009677887E-1
1.685903360E1,-3.289341927E-2,-5.096697807E-2,-2.106008530E-1
1.686903236E1,-5.954766273E-2,-6.018209457E-2,-2.129859924E-1
1.687903113E1,-6.451153755E-2,-5.238676071E-2,-2.106580734E-1
1.688902989E1,-7.855439186E-2,-5.156004429E-2,-2.252378464E-1
1.689902866E1,-7.135462761E-2,-3.663933277E-2,-2.157592773E-1
1.690902743E1,-7.143115997E-2,-3.109097481E-2,-2.254495621E-1
1.691902613E1,-6.119322777E-2,-2.537274361E-2,-2.329406738E-1
1.692902489E1,-4.832077026E-2,-3.210425377E-2,-2.260379791E-1
1.693902366E1,-4.287981987E-2,-3.634297848E-2,-1.855754852E-1
1.694902236E1,-3.963875771E-2,-3.842020035E-2,-1.786384583E-1
1.695902112E1,-3.192305565E-2,-5.220770836E-2,-1.692790985E-1
1.696901989E1,-6.435441971E-2,-5.902695656E-2,-1.983175278E-1
1.697901866E1,-8.243703842E-2,-6.852257252E-2,-1.818113327E-1
1.698901742E1,-6.451582909E-2,-5.557823181E-2,-1.989984512E-1
1.699901616E1,-6.111454964E-2,-6.433165073E-2,-2.257032394E-1
1.700901489E1,-5.819988251E-2,-4.635834694E-2,-2.523632050E-1
1.701901362E1,-6.981992722E-2,-3.521823883E-2,-2.359485626E-1
1.702901229E1,-4.549407959E-2,-1.269197464E-2,-2.170467377E-1
1.703901102E1,-6.855416298E-2,-2.433788776E-2,-2.268781662E-1
1.704900975E1,-6.531476974E-2,-2.160668373E-2,-2.175464630E-1
1.705900845E1,-6.625986099E-2,-2.397048473E-2,-2.633676529E-1
1.706900719E1,-4.307079315E-2,-3.405117989E-2,-2.325229645E-1
1.707900592E1,-3.506016731E-2,-3.186058998E-2,-1.943655014E-1
1.708900465E1,-1.046895981E-3,-3.920125961E-2,-1.728992462E-1
1.709900338E1,-1.581788063E-2,-3.683793545E-2,-1.608314514E-1
1.710900215E1,-3.036499023E-2,-2.957201004E-2,-1.631994247E-1
1.711900092E1,-6.888771057E-2,-3.901064396E-2,-1.607809067E-1
1.712899968E1,-1.162366867E-1,-4.094064236E-2,-2.112607956E-1
1.713899845E1,-1.193479300E-1,-2.389919758E-2,-2.499914169E-1
1.714899722E1,-9.559869766E-2,-4.565429688E-2,-2.576303482E-1
1.715899598E1,-8.656954765E-2,-2.914583683E-2,-2.484207153E-1
1.716899468E1,-7.727169991E-2,-5.593144894E-2,-2.607860565E-1
1.717899348E1,-6.573677063E-2,-2.240943909E-2,-2.420682907E-1
1.718899225E1,-4.256153107E-2,-1.540553570E-2,-2.400045395E-1
1.719899095E1,-2.691006660E-2,-4.903471470E-2,-2.259054184E-1
1.720898971E1,-4.091620445E-2,-3.206634521E-2,-2.188386917E-1
1.721898848E1,-4.996109009E-2,-4.443943501E-2,-1.997337341E-1
1.722898725E1,-5.439233780E-2,-5.179214478E-2,-2.117547989E-1
1.723898601E1,-4.495286942E-2,-5.686604977E-2,-2.116765976E-1
1.724898478E1,-6.159806252E-2,-6.396579742E-2,-2.117156982E-1
1.725898354E1,-8.745861053E-2,-6.598055363E-2,-2.310409546E-1
1.726898231E1,-7.947611809E-2,-5.767560005E-2,-2.218313217E-1
1.727898101E1,-8.355665207E-2,-3.955066204E-2,-2.246160507E-1
1.728897978E1,-9.206962585E-2,-3.858458996E-2,-2.250156403E-1
1.729897854E1,-6.668496132E-2,-4.505550861E-2,-2.254552841E-1
1.730897727E1,-6.790184975E-2,-3.260576725E-2,-2.162208557E-1
1.731897607E1,-5.227851868E-2,-2.504801750E-2,-2.261390686E-1
1.732897491E1,-3.966450691E-2,-3.233110905E-2,-2.142925262E-1
1.733897374E1,-4.613423347E-2,-3.001797199E-2,-2.216186523E-1
1.734897267E1,-3.139305115E-2,-2.762758732E-2,-2.145185471E-1
1.735897154E1,-5.783081055E-2,-3.692054749E-2,-2.336988449E-1
1.736897044E1,-5.562710762E-2,-4.629218578E-2,-2.241144180E-1
1.737896934E1,-7.002544403E-2,-3.662502766E-2,-2.289104462E-1
1.738896817E1,-6.969285011E-2,-3.183674812E-2,-2.146196365E-1
1.739896707E1,-8.839726448E-2,-2.701914310E-2,-2.195110321E-1
1.740896594E1,-7.091498375E-2,-3.199899197E-2,-2.292156219E-1
1.741896474E1,-6.075572968E-2,-2.987742424E-2,-2.269039154E-1
1.742896360E1,-3.672742844E-2,-2.524518967E-2,-2.292900085E-1
1.743896247E1,-3.712797165E-2,-3.522312641E-2,-2.195568085E-1
1.744896127E1,-2.173852921E-2,-4.004788399E-2,-2.288246155E-1
1.745896014E1,-3.732609749E-2,-3.530156612E-2,-2.309417725E-1
1.746895900E1,-2.865028381E-2,-1.889872551E-2,-2.258939743E-1
1.747895784E1,-2.496147156E-2,-1.477527618E-2,-2.111721039E-1
1.748895670E1,-4.275703430E-2,-4.878449440E-2,-2.012825012E-1
1.749895557E1,-1.939988136E-2,-1.747739315E-2,-2.275199890E-1
1.750895443E1,-4.976296425E-2,-2.258527279E-2,-2.366828918E-1
1.751895330E1,-3.899669647E-2,-3.258574009E-2,-2.267656326E-1
1.752895207E1,-4.040026665E-2,-2.329087257E-2,-2.216176987E-1
1.753895093E1,-1.327300072E-2,-2.883756161E-2,-2.115554810E-1
1.754894980E1,-2.478098869E-2,-4.124510288E-2,-2.182359695E-1
1.755894860E1,-2.222156525E-2,-4.153418541E-2,-1.985359192E-1
1.756894746E1,-5.304551125E-2,-3.688836098E-2,-1.956529617E-1
1.757894633E1,-3.808069229E-2,-5.376255512E-2,-1.928386688E-1
1.758894520E1,-4.126954079E-2,-4.638111591E-2,-1.998786926E-1
1.759894406E1,-4.685592651E-2,-4.827737808E-2,-2.213344574E-1
1.760894289E1,-4.746723175E-2,-5.313158035E-2,-2.116098404E-1
1.761894173E1,-5.494451523E-2,-4.542517662E-2,-2.068433762E-1
1.762894053E1,-4.049825668E-2,-2.839910984E-2,-2.140893936E-1
1.763893926E1,-4.061770439E-2,-3.046381474E-2,-2.141199112E-1
1.764893796E1,-2.445578575E-2,-3.218829632E-2,-2.117061615E-1
1.765893669E1,-2.713465691E-2,-2.968811989E-2,-1.949014664E-1
1.766893536E1,-3.471350670E-2,-2.963793278E-2,-2.139749527E-1
1.767893409E1,-4.982805252E-2,-4.646205902E-2,-2.185850143E-1
1.768893283E1,-2.382183075E-2,-4.203712940E-2,-2.399988174E-1
1.769893159E1,-2.781844139E-2,-2.534139156E-2,-2.228689194E-1
1.770893032E1,-1.035642624E-2,-3.028666973E-2,-1.889438629E-1
1.771892906E1,-1.248550415E-2,-3.263223171E-2,-1.765031815E-1
1.772892779E1,-4.636764526E-3,-1.328098774E-2,-1.617851257E-1
1.773892656E1,-2.955365181E-2,-1.107978821E-2,-1.591377258E-1
1.774892532E1,-6.588053703E-2,-1.855564117E-2,-1.805458069E-1
1.775892409E1,-8.426260948E-2,-4.277610779E-2,-2.141914368E-1
1.776892285E1,-1.237535477E-1,-3.092765808E-2,-2.383842468E-1
1.777892155E1,-1.102097034E-1,-2.666556835E-2,-2.147045135E-1
1.778892032E1,-9.651899338E-2,-3.494143486E-2,-2.316627502E-1
1.779891909E1,-7.812547684E-2,-2.865314484E-2,-2.246932983E-1
1.780891779E1,-4.558300972E-2,-4.603457451E-2,-2.344799042E-1
1.781891655E1,-2.118611336E-2,-4.848802090E-2,-2.297830582E-1
1.782891535E1,-1.994848251E-2,-2.891945839E-2,-2.200174332E-1
1.783891412E1,-2.074670792E-2,-3.808486462E-2,-1.839962006E-1
1.784891288E1,-2.826905251E-2,-5.964696407E-2,-2.054662704E-1
1.785891165E1,-5.496716499E-2,-5.736076832E-2,-2.077617645E-1
1.786891042E1,-7.641768456E-2,-4.516887665E-2,-2.054262161E-1
1.787890918E1,-5.401325226E-2,-3.517639637E-2,-1.985054016E-1
1.788890788E1,-3.926324844E-2,-5.945146084E-2,-2.081127167E-1
1.789890665E1,-7.758831978E-2,-1.812386513E-2,-1.986389160E-1
1.790890541E1,-6.278133392E-2,-3.435206413E-2,-2.131929398E-1
1.791890411E1,-7.004165649E-2,-3.905272484E-2,-2.179784775E-1
1.792890288E1,-6.014466286E-2,-7.983088493E-3,-2.012815475E-1
1.793890165E1,-3.580403328E-2,-8.688688278E-3,-1.988563538E-1
1.794890035E1,-2.853846550E-2,-9.599566460E-3,-2.059011459E-1
1.795889911E1,-3.567123413E-2,-1.737654209E-2,-1.986284256E-1
1.796889788E1,-4.016566277E-2,-2.550065517E-2,-1.913509369E-1
1.797889664E1,-3.027105331E-2,-1.384878159E-2,-2.033386230E-1
1.798889541E1,-5.172228813E-2,-2.395749092E-2,-1.936931610E-1
1.799889408E1,-5.113077164E-2,-2.703082561E-2,-2.152566910E-1
1.800889284E1,-7.215189934E-2,-3.979587555E-2,-2.104501724E-1
1.801889161E1,-7.143044472E-2,-2.842640877E-2,-2.176904678E-1
1.802889031E1,-6.600022316E-2,-3.399002552E-2,-2.488269806E-1
1.803888904E1,-6.575942039E-2,-2.713060379E-2,-2.488250732E-1
1.804888777E1,-6.771063805E-2,-2.031922340E-2,-2.368888855E-1
1.805888644E1,-5.549693108E-2,-3.517210484E-2,-2.464361191E-1
1.806888517E1,-5.540299416E-2,-3.584349155E-2,-2.032461166E-1
1.807888391E1,-4.816746712E-2,-4.826390743E-2,-1.983928680E-1
1.808888264E1,-5.524682999E-2,-5.341482162E-2,-1.672267914E-1
1.809888137E1,-3.544425964E-2,-5.826139450E-2,-1.482076645E-1
1.810888010E1,-5.889582634E-2,-4.118561745E-2,-1.890726089E-1
1.811887884E1,-6.747412682E-2,-4.058599472E-2,-1.822166443E-1
1.812887760E1,-7.856488228E-2,-5.203640461E-2,-2.160215378E-1
1.813887630E1,-4.136729240E-2,-5.351114273E-2,-2.332248688E-1
1.814887507E1,-3.144907951E-2,-4.316854477E-2,-2.430086136E-1
1.815887384E1,-3.218626976E-2,-4.299640656E-2,-2.428741455E-1
1.816887254E1,4.639625549E-4,-4.942464828E-2,-2.260494232E-1
1.817887130E1,1.827335358E-2,-6.563186646E-2,-2.306337357E-1
1.818887007E1,2.007961273E-3,-6.004548073E-2,-2.183752060E-1
1.819886877E1,-1.708316803E-2,-4.012227058E-2,-2.227735519E-1
1.820886753E1,-2.862620354E-2,-4.903018475E-2,-2.056894302E-1
1.821886630E1,-2.331137657E-2,-2.667021751E-2,-1.958341599E-1
1.822886507E1,-6.598043442E-2,-9.256958961E-3,-1.931114197E-1
1.823886380E1,-8.633017540E-2,-3.793799877E-2,-1.617269516E-1
1.824886256E1,-7.730245590E-2,-3.306984901E-2,-1.616172791E-1
1.825886133E1,-1.039297581E-1,-4.027926922E-2,-1.998558044E-1
1.826886010E1,-8.380150795E-2,-2.834379673E-2,-2.096452713E-1
1.827885880E1,-8.282279968E-2,-3.338956833E-2,-2.002439499E-1
1.828885756E1,-5.989027023E-2,-2.155768871E-2,-2.412319183E-1
1.829885633E1,-3.263020515E-2,-5.229830742E-3,-2.533359528E-1
1.830885503E1,-2.507781982E-2,-5.772471428E-3,-2.054405212E-1
1.831885380E1,-2.248287201E-2,1.739275455E-2,-1.981706619E-1
1.832885260E1,-4.834389687E-2,-1.028048992E-2,-2.100191116E-1
1.833885136E1,-4.525947571E-2,4.940986633E-3,-2.123041153E-1
1.834885013E1,-5.900144577E-2,-3.768610954E-2,-2.145090103E-1
1.835884893E1,-3.784084320E-2,-3.185868263E-2,-1.926412582E-1
1.836884773E1,-2.928328514E-2,-2.551686764E-2,-1.587486267E-1
1.837884663E1,-3.016853333E-2,-2.610349655E-2,-1.680269241E-1
1.838884553E1,-3.789114952E-2,-5.233967304E-2,-1.751070023E-1
1.839884449E1,-6.677269936E-2,-3.303742409E-2,-1.846752167E-1
1.840884349E1,-1.070299149E-1,-3.980123997E-2,-2.183675766E-1
1.841884246E1,-1.073570251E-1,-3.513467312E-2,-2.307796478E-1
1.842884146E1,-1.143271923E-1,-3.542399406E-2,-2.217340469E-1
1.843884049E1,-7.311058044E-2,-5.266547203E-2,-2.294826508E-1
1.844883952E1,-6.332635880E-2,-4.080653191E-2,-2.324380875E-1
1.845883863E1,-4.725480080E-2,-3.599214554E-2,-2.136669159E-1
1.846883772E1,-3.663897514E-2,-4.524374008E-2,-2.043771744E-1
1.847883683E1,-1.247119904E-2,-4.206049442E-2,-2.021675110E-1
1.848883592E1,-3.479886055E-2,-6.573128700E-2,-2.092247009E-1
1.849883502E1,-1.883435249E-2,-6.562650204E-2,-2.162485123E-1
1.850883412E1,-2.931451797E-2,-7.913494110E-2,-2.209825516E-1
1.851883322E1,-5.386209488E-2,-6.621348858E-2,-2.281942368E-1
1.852883226E1,-4.710340500E-2,-8.666861057E-2,-2.163152695E-1
1.853883149E1,-4.743790627E-2,-7.285630703E-2,-2.093744278E-1
1.854883059E1,-5.942392349E-2,-3.991353512E-2,-1.929206848E-1
1.855882962E1,-6.204104424E-2,-3.841757774E-2,-1.811552048E-1
1.856882872E1,-5.715107918E-2,-1.085424423E-2,-1.957530975E-1
1.857882782E1,-5.497431755E-2,-8.498430252E-4,-2.149305344E-1
1.858882692E1,-5.273342133E-2,3.894209862E-3,-2.005243301E-1
1.859882602E1,-1.435780525E-2,3.678679466E-3,-2.052907944E-1
1.860882512E1,-2.641153336E-2,2.683520317E-3,-2.122859955E-1
1.861882422E1,-1.980948448E-2,1.534223557E-3,-2.167491913E-1
1.862882329E1,-1.045274734E-2,-1.631236076E-2,-2.284860611E-1
1.863882232E1,-1.592898369E-2,-1.263248920E-2,-2.041997910E-1
1.864882142E1,-2.409815788E-2,-3.524160385E-2,-2.085866928E-1
1.865882049E1,-4.410719872E-2,-3.636181355E-2,-2.010221481E-1
1.866881949E1,-3.968095779E-2,-4.196250439E-2,-2.031955719E-1
1.867881846E1,-6.189346313E-2,-5.198752880E-2,-2.221250534E-1
1.868881736E1,-6.484842300E-2,-4.974710941E-2,-2.195796967E-1
1.869881619E1,-6.993460655E-2,-4.494285583E-2,-2.195167542E-1
1.870881505E1,-6.844329834E-2,-3.027760983E-2,-2.073945999E-1
1.871881389E1,-5.474948883E-2,-2.766513824E-2,-2.168588638E-1
1.872881272E1,-3.570628166E-2,-1.830005646E-2,-2.144041061E-1
1.873881152E1,-3.146600723E-2,-2.085077763E-2,-1.903114319E-1
1.874881025E1,-3.405022621E-2,-2.865576744E-2,-1.997394562E-1
1.875880899E1,-3.649640083E-2,-3.627204895E-2,-1.972599030E-1
1.876880772E1,-5.785369873E-2,-2.889943123E-2,-2.045164108E-1
1.877880639E1,-7.198715210E-2,-2.919220924E-2,-2.021245956E-1
1.878880512E1,-1.000311375E-1,-2.229464054E-2,-2.094125748E-1
1.879880388E1,-5.347490311E-2,-4.657328129E-2,-2.048034668E-1
1.880880258E1,-5.290579796E-2,-3.958153725E-2,-2.025032043E-1
1.881880135E1,-8.133220673E-2,-5.656683445E-2,-1.905612946E-1
1.882880012E1,-7.354140282E-2,-4.935419559E-2,-1.954908371E-1
1.883879878E1,-6.361389160E-2,-5.381774902E-2,-1.836538315E-1
1.884879755E1,-7.032632828E-2,-5.560839176E-2,-1.958341599E-1
1.885879631E1,-6.697297096E-2,-4.766619205E-2,-2.177257538E-1
1.886879508E1,-5.605721474E-2,-4.684853554E-2,-2.421073914E-1
1.887879385E1,-6.185340881E-2,-2.448320389E-2,-2.281904221E-1
1.888879255E1,-5.067396164E-2,-4.296743870E-2,-2.214794159E-1
1.889879131E1,-3.043723106E-2,-3.025233746E-2,-1.979036331E-1
1.890879008E1,-2.754330635E-2,-3.219902515E-2,-1.813325882E-1
1.891878878E1,-2.483439445E-2,-6.813383102E-2,-1.766099930E-1
1.892878754E1,-4.216217995E-2,-2.728259563E-2,-1.765089035E-1
1.893878631E1,-3.591752052E-2,-1.529657841E-2,-2.026395798E-1
1.894878501E1,-1.295590401E-2,-2.267169952E-2,-2.095718384E-1
1.895878378E1,-2.620959282E-2,-1.810216904E-2,-2.284030914E-1
1.896878254E1,-3.865361214E-2,-1.822531223E-2,-2.282772064E-1
1.897878131E1,-3.974938393E-2,-1.886141300E-2,-2.398958206E-1
1.898878007E1,-3.339242935E-2,-2.915287018E-2,-2.563486099E-1
1.899877884E1,-3.634262085E-2,-3.937578201E-2,-2.345657349E-1
1.900877761E1,-2.065014839E-2,-5.421972275E-2,-1.791772842E-1
1.901877637E1,-7.456302643E-3,-4.218041897E-2,-1.693506241E-1
1.902877507E1,-1.583814621E-2,-2.061462402E-2,-1.379594803E-1
1.903877384E1,-4.263019562E-2,-3.538167477E-2,-1.497602463E-1
1.904877260E1,-7.825660706E-2,-2.834129333E-2,-1.785326004E-1
1.905878894E1,-9.431719780E-2,-3.776705265E-2,-1.954746246E-1
1.906878771E1,-1.247148514E-1,-4.241478443E-2,-2.196035385E-1
1.907878647E1,-9.244751930E-2,-4.969847202E-2,-2.198410034E-1
1.908878524E1,-8.388257027E-2,-4.720485210E-2,-2.153778076E-1
1.909878397E1,-6.833887100E-2,-3.739857674E-2,-2.228612900E-1
1.910878270E1,-4.321932793E-2,-3.460216522E-2,-2.184038162E-1
1.911878144E1,-2.547717094E-2,-5.564558506E-2,-2.187089920E-1
1.912878017E1,-8.391380310E-3,-7.619762421E-2,-2.117700577E-1
1.913877884E1,-1.323270798E-2,-6.317150593E-2,-2.119388580E-1
1.914877757E1,-4.214811325E-2,-5.002009869E-2,-2.097053528E-1
1.915877630E1,-4.944872856E-2,-2.975559235E-2,-2.481775284E-1
1.916877497E1,-3.504419327E-2,-1.732730865E-2,-2.171392441E-1
1.917877370E1,-7.580137253E-2,-1.225090027E-2,-2.028093338E-1
1.918877244E1,-3.260064125E-2,-3.124940395E-2,-1.956758499E-1
1.919877114E1,-5.240797997E-2,-4.289901257E-2,-1.788253784E-1
1.920876990E1,-4.400706291E-2,-1.411652565E-2,-2.001218796E-1
1.921876867E1,-5.727148056E-2,-2.904307842E-2,-1.901597977E-1
1.922876743E1,-2.746653557E-2,-2.926468849E-3,-2.089824677E-1
1.923876620E1,-1.163744926E-2,-3.062844276E-2,-1.941766739E-1
1.924876496E1,-1.941466331E-2,-2.863466740E-2,-2.203121185E-1
1.925876373E1,-1.762008667E-2,-1.447141171E-2,-1.914119720E-1
1.926876250E1,-2.750706673E-2,-2.920758724E-2,-2.176170349E-1
1.927876120E1,-3.503131866E-2,-3.412604332E-2,-2.175178528E-1
1.928876000E1,-3.524231911E-2,-4.350912571E-2,-2.079267502E-1
1.929875876E1,-4.722380638E-2,-3.861510754E-2,-1.792106628E-1
1.930875746E1,-7.595348358E-2,-4.326438904E-2,-2.031784058E-1
1.931875623E1,-7.810854912E-2,-4.060935974E-2,-1.817274094E-1
1.932875500E1,-6.804966927E-2,-3.093981743E-2,-1.962165833E-1
1.933875376E1,-7.054638863E-2,-5.027031898E-2,-2.153186798E-1
1.934875253E1,-6.551241875E-2,-3.585839272E-2,-2.201700211E-1
1.935875129E1,-6.364989281E-2,-3.350353241E-2,-2.080726624E-1
1.936875006E1,-6.893801689E-2,-3.337252140E-2,-2.295312881E-1
1.937874883E1,-6.211471558E-2,-1.640570164E-2,-2.342748642E-1
1.938874753E1,-3.305625916E-2,-1.884746552E-2,-2.510995865E-1
1.939874629E1,-5.855131149E-2,-2.889478207E-2,-2.344484329E-1
1.940874506E1,-7.411837578E-2,-1.225292683E-2,-2.107524872E-1
