"Time (s)","Acceleration x (m/s^2)","Acceleration y (m/s^2)","Acceleration z (m/s^2)"
0.000000000E0,1.130097747E0,3.337619066E0,9.713572502E0
1.000694140E-1,-7.494080067E-1,1.628106833E-1,8.047157288E0
2.001477270E-1,-5.458946824E-1,1.994430900E0,1.011581135E1
3.002028730E-1,3.854782581E-1,3.490852594E0,7.585062504E0
4.002674890E-1,-1.544307232E0,3.993650436E0,1.057790565E1
5.003433720E-1,-2.873129845E-1,4.917840481E0,1.126745701E1
6.003986240E-1,-3.591412306E-1,1.891477108E-1,1.150449085E1
7.004707750E-1,1.247417212E0,1.704723716E0,6.057515144E0
8.005386210E-1,-7.637736797E-1,3.335224867E0,8.145322800E0
9.006080380E-1,3.495641351E-1,4.642498970E0,8.818114281E0
1.000674618E0,1.963305324E-1,4.101392746E0,8.830085754E0
1.100747803E0,-6.464542150E-1,4.738269806E0,1.316851139E1
1.200810124E0,-3.375927508E-1,3.232271075E-1,6.227508545E0
1.300878775E0,1.453324795E0,2.202732801E0,6.426233768E0
1.400947124E0,-1.173194647E-1,3.371139050E0,8.614601135E0
1.501010373E0,-1.264177084E0,4.795732498E0,1.044382668E1
1.601075619E0,4.477293789E-1,4.527573586E0,1.228981304E1
1.701149266E0,-1.149251938E0,6.967339516E-1,1.193546009E1
1.801208118E0,-4.357580245E-1,1.438959122E0,7.154093266E0
1.901274499E0,-8.475732803E-1,2.899466753E0,8.889942169E0
2.001340311E0,-1.168406129E0,3.421418667E0,8.514040947E0
2.101413293E0,4.501236677E-1,4.393494129E0,8.631361008E0
2.201481576E0,-2.705530524E-1,5.138113976E0,1.135843945E1
2.301550626E0,-1.197137404E-2,1.462901950E0,7.489291668E0
2.401611377E0,1.154040456E0,1.908236980E0,5.712739468E0
2.501676826E0,-1.675992459E-2,3.313676357E0,7.350423813E0
2.601745407E0,-1.082212210E0,4.601796150E0,9.177255630E0
2.701812256E0,-2.681587934E-1,4.757423878E0,1.137759399E1
2.801877835E0,1.223474383E0,3.366350412E0,1.059466648E1
2.901945983E0,-1.221080124E-1,1.130097747E0,8.344047546E0
3.002016561E0,-4.429408312E-1,2.719896078E0,7.905895233E0
3.102081444E0,-6.799740195E-1,4.862771988E0,7.728719234E0
3.202151987E0,-4.932205975E-1,5.751048088E0,8.961771011E0
3.302220340E0,6.153286099E-1,5.044736862E0,1.188757420E1
3.402280625E0,-2.944957912E-1,2.176395893E0,9.876383781E0
3.502355173E0,-2.825244367E-1,1.977671027E0,5.202759266E0
3.602425821E0,-2.394274771E-1,2.861158371E0,7.000859737E0
3.702487068E0,-1.575432777E0,4.467716694E0,9.708784103E0
3.802563719E0,-5.411061049E-1,5.638517380E0,1.157631874E1
3.902616668E0,-2.226675600E-1,3.708731651E0,1.484929276E1
4.002686850E0,-6.320885420E-1,6.680026650E-1,8.485309601E0
4.102759664E0,7.565908432E-1,2.636096478E0,4.960937500E0
4.202825147E0,-1.029538155E0,3.955342054E0,7.917866707E0
4.303809497E0,-1.321639657E0,5.051919937E0,1.016848469E1
4.403876382E0,-5.602602959E-1,5.918647289E0,1.151167297E1
4.503950563E0,-1.151646137E0,3.160442829E0,1.229699516E1
4.604018010E0,-1.484450340E0,1.664021015E0,6.057515144E0
4.704078759E0,-6.967339516E-1,2.324840784E0,7.252258301E0
4.804152444E0,-1.563461423E0,4.431802750E0,8.600234985E0
4.904213396E0,-9.648927450E-1,5.703162670E0,1.183968925E1
5.004281443E0,-1.268965602E-1,5.698374271E0,1.166730118E1
5.104347592E0,5.698373914E-1,2.612153769E0,9.495694160E0
5.204412207E0,-2.561874092E-1,2.868341208E0,6.981705189E0
5.304490326E0,-8.164477348E-1,3.732674360E0,6.718335152E0
5.404549843E0,-1.173194647E-1,6.217931747E0,8.971347809E0
5.504615456E0,-1.197137404E-2,4.936994553E0,1.083888245E1
5.604687237E0,-1.697540879E0,3.885908127E0,1.302724934E1
5.704755884E0,-5.458946824E-1,2.248224020E0,7.168458939E0
5.804817332E0,2.825244367E-1,3.107768774E0,6.850020409E0
5.904894746E0,-7.972934842E-1,4.450956821E0,9.253871918E0
6.004951031E0,-2.250618339E-1,5.221913338E0,9.986519814E0
6.105026045E0,1.292908430E0,5.363175392E0,1.367609787E1
6.205090425E0,3.232271075E-1,1.740637779E0,1.050847244E1
6.305156777E0,1.031932473E0,2.779752970E0,4.960937500E0
6.405218157E0,-1.393467903E0,4.139701366E0,7.561120033E0
6.505294372E0,-1.012778282E0,6.636929989E0,9.624984741E0
6.605360018E0,-6.273000240E-1,5.092622280E0,1.084845924E1
6.705425400E0,4.692778587E-1,3.122134447E0,1.410227871E1
6.805491718E0,-6.703969240E-1,1.771763325E0,7.690410614E0
6.905554963E0,4.405465722E-1,2.949746609E0,7.017619610E0
7.005623509E0,-1.845985889E0,3.711125851E0,8.688823700E0
7.105690459E0,-5.746259540E-2,5.109382629E0,1.027622795E1
7.205759738E0,-4.764606953E-1,4.515602112E0,1.388439941E1
7.305827757E0,5.937801600E-1,1.211503029E0,9.548367500E0
7.405898970E0,-3.112557232E-1,9.481328130E-1,4.434196949E0
7.505960552E0,-9.864411950E-1,3.586623669E0,7.752661705E0
7.606027165E0,2.202732861E-1,6.012023926E0,9.593858719E0
7.706093511E0,-3.735068738E-1,4.716721535E0,1.163138676E1
7.806159792E0,1.137280583E0,2.274561167E0,1.341512203E1
7.906227439E0,-1.460507631E0,1.098972082E0,7.817307472E0
8.006293490E0,-3.806896806E-1,2.516382933E0,6.012023926E0
8.106366371E0,-1.295302629E0,3.806896925E0,8.870788574E0
8.206426048E0,-5.794144869E-1,4.898686409E0,1.228023529E1
8.306504029E0,-3.375927508E-1,4.798126698E0,1.402326775E1
8.406560611E0,1.508393139E-1,1.972882390E0,9.591464996E0
8.506632092E0,1.245022863E-1,2.068653345E0,4.824463844E0
8.606697772E0,-1.072635174E0,3.407052994E0,6.790163517E0
8.706763190E0,-1.288119793E0,7.103813171E0,1.137519932E1
8.806835670E0,-6.249057055E-1,4.664047241E0,1.188278580E1
8.906901587E0,-2.274561077E-1,2.873129845E0,1.130337143E1
9.006971600E0,5.147690773E-1,2.621730804E0,6.541158676E0
9.107038684E0,-1.867534369E-1,3.050306082E0,7.723930359E0
9.207096595E0,-1.410227895E0,4.352791786E0,8.171659470E0
9.307168278E0,-6.057515144E-1,5.375146866E0,1.251726913E1
9.407234828E0,2.873129845E-1,4.695172787E0,1.177983189E1
9.507300776E0,-2.130904645E-1,2.851581335E0,1.150449085E1
9.607376755E0,-7.302538157E-1,1.896265626E0,5.906675816E0
9.707440236E0,-1.302485466E0,3.806896925E0,6.675238132E0
9.807503385E0,2.873129770E-2,6.584255695E0,9.251478195E0
9.907567736E0,-4.812492430E-1,5.073468208E0,1.072874546E1
1.000763708E1,-6.871568561E-1,2.581028223E0,1.104000092E1
1.010770596E1,-2.030344963E0,2.842004299E0,7.163670063E0
1.020776825E1,-4.908263385E-1,3.459727049E0,6.984099388E0
1.030783590E1,-5.004034638E-1,4.606584549E0,8.602629662E0
1.040790411E1,2.992843390E-1,5.245856285E0,9.785401344E0
1.050797352E1,1.012778282E0,4.826858044E0,1.260346222E1
1.060804467E1,-3.351984918E-2,2.552296877E0,9.862017632E0
1.070810619E1,2.418217510E-1,3.208328247E0,5.798933506E0
1.080817940E1,-1.225868702E0,4.561093330E0,8.004060745E0
1.090824398E1,6.967339516E-1,6.833260536E0,9.287391663E0
1.100830700E1,8.379961550E-2,5.367964268E0,1.083409309E1
1.110837854E1,4.884320498E-1,2.901860952E0,6.941002846E0
1.120844692E1,-3.328042030E-1,3.284945011E0,7.819701672E0
1.130851871E1,-8.379961550E-2,3.689577579E0,6.821289062E0
1.140857862E1,-7.182824612E-1,4.546727657E0,8.157294273E0
1.150866241E1,4.908263385E-1,6.134131908E0,1.084367085E1
1.160876536E1,2.576239586E0,5.597814560E0,1.268965626E1
1.170883647E1,1.508393139E-1,1.984853864E0,8.320104599E0
1.180890752E1,-1.252205729E0,2.559479713E0,6.950579643E0
1.190897590E1,-8.332076073E-1,4.314483166E0,7.388731956E0
1.200903488E1,8.379961550E-2,6.852414608E0,8.130957603E0
1.210911497E1,-4.980091453E-1,5.379935265E0,1.209827042E1
1.220917331E1,1.122914910E0,2.707924843E0,8.415876389E0
1.230923443E1,-6.584255695E-1,2.221887112E0,6.112583637E0
1.240931355E1,1.795706153E-1,3.361561775E0,6.955368519E0
1.250937766E1,-8.475732803E-1,4.259414673E0,8.980924606E0
1.260944515E1,6.775797606E-1,5.291347504E0,1.058508873E1
1.270950516E1,9.577099234E-2,4.101392746E0,1.404721069E1
1.280957247E1,7.685621977E-1,2.382303476E0,7.649707794E0
1.290964046E1,-4.525179267E-1,2.296109438E0,5.300924301E0
1.300970910E1,-8.739103079E-1,4.096604347E0,8.593051910E0
1.310977922E1,-7.925049663E-1,6.715940952E0,9.957788467E0
1.320984144E1,-5.099805593E-1,4.776578426E0,1.155955887E1
1.330990526E1,5.411061049E-1,2.549902678E0,5.921041489E0
1.340997521E1,1.867534369E-1,3.306493521E0,5.956955910E0
1.351005249E1,-5.315290093E-1,3.806896925E0,7.094236374E0
1.361010973E1,-1.249811411E0,5.200365067E0,9.917086601E0
1.371017732E1,-1.939362586E-1,5.588237286E0,9.557945251E0
1.381024983E1,1.166011810E0,4.031958580E0,1.171279240E1
1.391031091E1,8.260248303E-1,2.499622822E0,6.131737709E0
1.401038213E1,1.197137386E-1,3.624932051E0,7.666468143E0
1.411044468E1,-4.908263385E-1,4.831646442E0,7.697593689E0
1.421051153E1,2.178790122E-1,6.536370277E0,8.166871071E0
1.431059548E1,-8.164477348E-1,5.365570068E0,1.026904488E1
1.441064759E1,-5.315290093E-1,3.261002302E0,8.135746002E0
1.451071430E1,9.098244458E-2,3.500429869E0,7.328875065E0
1.461078109E1,-4.189980924E-1,3.083826065E0,6.620169640E0
1.471084760E1,-1.031932473E0,4.769395351E0,8.150111198E0
1.481091645E1,-3.040728867E-1,5.942590237E0,1.087479591E1
1.491098806E1,6.488484740E-1,5.020794392E0,1.119084072E1
1.501105521E1,-3.351984620E-1,2.348783493E0,1.046298122E1
1.511112216E1,8.379961550E-2,3.002420664E0,6.852414608E0
1.521118864E1,-3.328042030E-1,4.589824677E0,7.417463303E0
1.531125149E1,8.379961550E-2,6.629746914E0,9.040781975E0
1.541131717E1,-1.652049571E-1,5.363175392E0,1.086761379E1
1.551138408E1,-8.140534163E-2,2.777358770E0,8.581081390E0
1.561144997E1,-1.508393139E-1,2.820455790E0,5.676825523E0
1.571152362E1,-5.027977005E-2,3.225088120E0,7.467742920E0
1.581159190E1,-7.350423932E-1,4.484476566E0,9.064723969E0
1.591165855E1,3.663240373E-1,5.693585396E0,1.009186840E1
1.601171986E1,-3.615354896E-1,4.288146019E0,1.334329319E1
1.611179868E1,2.370332032E-1,1.769369125E0,8.382355690E0
1.621186629E1,1.103760719E0,2.956929445E0,6.763826370E0
1.631192584E1,-7.087053657E-1,4.412648678E0,7.577879906E0
1.641198852E1,-7.661679387E-1,6.419050694E0,8.834874153E0
1.651205233E1,1.460507661E-1,5.830059052E0,1.036960411E1
1.661212168E1,-3.543526828E-1,2.528354168E0,1.188278580E1
1.671219086E1,-8.882759809E-1,2.185972929E0,6.282577038E0
1.681226758E1,5.698373914E-1,3.409447432E0,6.493273258E0
1.691234206E1,-8.571503758E-1,4.415042877E0,8.593051910E0
1.701239830E1,6.201171875E-1,5.803721905E0,1.083648777E1
1.711245865E1,2.897072434E-1,4.846012115E0,1.321400261E1
1.721252643E1,1.340793967E-1,2.056682110E0,9.806949615E0
1.731259385E1,1.048692346E0,2.648067951E0,4.678412914E0
1.741266830E1,-9.385557175E-1,3.993650436E0,7.654496670E0
1.751273074E1,-1.482056141E0,5.990475655E0,9.893143654E0
1.761279962E1,1.465296149E0,6.244268894E0,9.761458397E0
1.771286881E1,1.268965602E0,4.060689926E0,1.236164093E1
1.781293719E1,-2.633702382E-2,2.442160368E0,5.159662247E0
1.791300037E1,-8.092648983E-1,2.815667152E0,8.008849144E0
1.801306201E1,-1.309668303E0,4.683201313E0,8.650514603E0
1.811313450E1,1.000806928E0,6.186806202E0,1.109028053E1
1.821319944E1,1.295302629E0,5.375146866E0,1.070240879E1
1.831327003E1,2.394274808E-2,2.387091875E0,1.060184860E1
1.841333064E1,1.482056141E0,2.382303476E0,4.984879971E0
1.851339223E1,-5.794144869E-1,4.137306690E0,8.116591454E0
1.861346525E1,-9.792584181E-1,5.772596359E0,8.722343445E0
1.871353820E1,-2.274561077E-1,6.306519985E0,9.761458397E0
1.881360368E1,-1.699935049E-1,4.005621910E0,1.251726913E1
1.891373721E1,-7.374366522E-1,2.379909277E0,6.586649895E0
1.901380336E1,7.518022656E-1,3.342407703E0,7.965752125E0
1.911386967E1,-1.082212210E0,3.914639235E0,7.532388687E0
1.921393709E1,1.556278616E-1,5.525986195E0,9.431048393E0
1.931400610E1,5.075862408E-1,5.573871613E0,1.284767818E1
1.941407045E1,1.237840056E0,3.148471355E0,1.073832226E1
1.951413300E1,2.633702159E-1,1.573038578E0,6.249057293E0
1.961420975E1,6.823683381E-1,4.467716694E0,8.197997093E0
1.971427206E1,-6.296942830E-1,5.389512539E0,7.896318436E0
1.981434038E1,-1.240234375E0,6.062304020E0,1.051804924E1
1.991441503E1,-1.000806928E0,4.391099930E0,1.209108734E1
2.001447411E1,4.237866402E-1,2.162030220E0,5.619362831E0
2.011456149E1,-2.944957912E-1,3.294522047E0,7.288172722E0
2.021461347E1,-1.355159521E0,4.276175022E0,8.691217422E0
2.031467495E1,-1.776551962E0,5.118959427E0,8.365595818E0
2.041474833E1,1.915419847E-1,5.925830364E0,1.066170597E1
2.051480754E1,1.637683988E0,4.537150860E0,1.564419174E1
2.061487589E1,-8.906702399E-1,9.194015265E-1,9.021627426E0
2.071495118E1,1.055875182E0,2.707924843E0,4.778972626E0
2.081501569E1,-1.415016413E0,4.831646442E0,7.733507633E0
2.091507914E1,-1.316851139E0,7.154093266E0,1.043424988E1
2.101514542E1,2.921015322E-1,5.370358467E0,1.135604572E1
2.111521197E1,8.978530765E-1,2.133298874E0,8.219545364E0
2.121528498E1,2.466102988E-1,2.806090117E0,7.613793850E0
2.131534756E1,2.921015322E-1,3.948159218E0,6.423839092E0
2.141541681E1,-1.379102230E0,4.836435318E0,7.309720993E0
2.151547682E1,-6.464541703E-2,5.813299179E0,1.085564232E1
2.161554771E1,-2.035133541E-1,5.710345268E0,1.223474407E1
2.171561723E1,-4.716721475E-1,2.097384691E0,7.836461544E0
2.181568171E1,6.344828010E-1,3.284945011E0,7.484503269E0
2.191574909E1,-1.321639657E0,4.072661400E0,7.132544518E0
2.201581694E1,-1.173194647E0,5.978504181E0,8.650514603E0
2.211588369E1,1.532335877E-1,5.846818924E0,1.117408085E1
2.221595060E1,-5.243461728E-1,2.602576733E0,1.242628670E1
2.231602462E1,-6.967339516E-1,2.846792698E0,6.711152077E0
2.241608474E1,-4.956148863E-1,3.361561775E0,6.814105988E0
2.251614668E1,-1.197137356E0,4.000833035E0,8.236305237E0
2.261621716E1,5.722316504E-1,4.592218876E0,1.001046276E1
2.271628611E1,4.764606953E-1,5.142902374E0,1.316611671E1
2.281635349E1,7.134938836E-1,2.178790092E0,9.301757812E0
2.291642890E1,4.980091453E-1,1.980065227E0,7.099024773E0
2.301649372E1,-6.751855016E-1,3.900273561E0,7.295355320E0
2.311655840E1,9.864411950E-1,6.737489223E0,9.498087883E0
2.321662188E1,-5.027977005E-2,4.278569221E0,1.067846584E1
2.331669526E1,-2.490045726E-1,2.042316437E0,1.062579155E1
2.341675607E1,-6.727912426E-1,1.898659945E0,6.952973843E0
2.351682685E1,-2.370332032E-1,2.928198099E0,6.780586243E0
2.361689466E1,-2.921015322E-1,4.601796150E0,8.528407097E0
2.371695941E1,-7.661679387E-2,4.936994553E0,1.024270725E1
2.381702452E1,-2.011190802E-1,3.656057596E0,1.330259037E1
2.391710281E1,2.346389294E-1,2.080624819E0,8.937828064E0
2.401715876E1,8.140534163E-1,3.074248791E0,5.193181992E0
2.411723334E1,-5.650488734E-1,4.726298332E0,7.819701672E0
2.421729395E1,-1.218685865E0,6.261028767E0,1.026665020E1
2.431735920E1,-2.106961906E-1,5.296135902E0,1.382933140E1
2.441743265E1,-5.051919818E-1,2.384697676E0,6.502850533E0
2.451749713E1,-5.913859010E-1,2.626519442E0,8.602629662E0
2.461756641E1,4.956148863E-1,3.809291124E0,6.768614769E0
2.471764126E1,6.153286099E-1,6.208354473E0,1.050847244E1
2.481770658E1,1.166011810E0,5.679219723E0,1.166730118E1
2.491776699E1,-2.394274771E-1,2.980872154E0,1.166490650E1
2.501783247E1,6.296942830E-1,1.642472506E0,5.990475655E0
2.511789855E1,-3.806896806E-1,3.948159218E0,7.158881664E0
2.521796361E1,-9.050358534E-1,4.972908974E0,9.050358772E0
2.531803625E1,-3.136500120E-1,5.334444046E0,1.062818623E1
2.541810127E1,9.433442950E-1,1.757397652E0,1.256036568E1
2.551816548E1,2.585816681E-1,1.649655342E0,5.262616158E0
2.561823100E1,2.466102988E-1,2.784541607E0,6.950579643E0
2.571830354E1,-1.436564922E-1,4.438985348E0,8.727131844E0
2.581837333E1,7.637736797E-1,4.599401951E0,1.158350182E1
2.591843757E1,-5.818088055E-1,2.169213057E0,1.474873257E1
2.601850672E1,8.379961550E-2,1.316851139E0,1.007750225E1
2.611857787E1,1.628106833E-1,3.081431627E0,5.351204395E0
2.621864098E1,-6.584255695E-1,4.268991947E0,6.826077461E0
2.631901887E1,-8.882759809E-1,5.655277252E0,1.072156239E1
2.641908982E1,-5.027977228E-1,4.529967785E0,1.205038548E1
2.651915564E1,-9.337671995E-1,1.879505754E0,7.618582249E0
2.661922145E1,5.985686928E-2,2.885101080E0,6.407079220E0
2.671929420E1,-4.429408312E-1,3.713520288E0,7.707170486E0
2.681935428E1,5.267404765E-2,5.023188591E0,1.081733322E1
2.691942983E1,4.118152559E-1,5.152479172E0,1.373356056E1
2.701949368E1,-1.247417212E0,1.601769805E0,9.677659035E0
2.711956796E1,9.888355136E-1,1.855562925E0,5.521197796E0
2.721962251E1,-2.825244367E-1,3.347196102E0,6.811711788E0
2.731969086E1,-1.048692346E0,6.043149471E0,9.699207306E0
2.741975594E1,1.855562925E0,6.165257454E0,1.109746361E1
2.751982055E1,-1.915419847E-1,2.214704275E0,9.933846474E0
2.761989780E1,-3.687183261E-1,2.166818619E0,7.252258301E0
2.771995865E1,3.256213665E-1,2.909043789E0,5.995264053E0
2.782002760E1,-1.355159521E0,4.249837875E0,8.473338127E0
2.792009234E1,6.225114465E-1,5.604997158E0,1.161941528E1
2.802016092E1,-5.698373914E-1,3.737462997E0,1.394425678E1
2.812022837E1,-6.201171875E-1,1.211503029E0,7.980117798E0
2.822029902E1,1.412622094E0,2.664827824E0,6.921848297E0
2.832036240E1,-1.077423692E-1,4.091815472E0,6.806923389E0
2.842042791E1,-1.807677507E0,5.669642925E0,1.143266201E1
2.852049613E1,-5.985686779E-1,4.800520897E0,1.219883060E1
2.862056168E1,-1.197137386E-1,1.520364523E0,7.400703430E0
2.872062936E1,6.823683381E-1,2.121327400E0,8.109408379E0
2.882069680E1,-4.716721475E-1,2.861158371E0,7.709564686E0
2.892076355E1,-5.506832153E-2,4.580247879E0,1.142547894E1
2.902083076E1,2.729473412E-1,4.474899769E0,1.192109394E1
2.912090174E1,-6.320885420E-1,2.140481710E0,1.131534290E1
2.922096553E1,9.792584181E-1,2.133298874E0,5.763019562E0
2.932103201E1,-6.392713785E-1,3.122134447E0,7.010436535E0
2.942109979E1,-8.954587579E-1,6.289760113E0,1.076705360E1
2.952116767E1,1.271359921E0,5.643305779E0,1.037918091E1
2.962123482E1,4.309694469E-2,2.897072554E0,1.315893459E1
2.972130767E1,-4.932205975E-1,1.917814136E0,6.976916790E0
2.982136782E1,6.943396926E-1,3.088614464E0,5.382329941E0
2.992143537E1,-1.019961119E0,4.075055599E0,8.334470749E0
3.002150508E1,1.592192769E0,5.600208759E0,1.070001411E1
3.012156956E1,8.379961550E-2,3.816473961E0,1.278303337E1
3.022163665E1,6.081457734E-1,1.932179809E0,8.243488312E0
3.032170676E1,1.264177084E0,2.657644987E0,6.715940952E0
3.042177144E1,3.375927508E-1,3.689577579E0,7.637736797E0
3.052184259E1,-1.479661822E0,5.298530102E0,1.142547894E1
3.062191154E1,-1.256994247E0,4.199557781E0,1.153801060E1
3.072198996E1,3.687183261E-1,1.817254543E0,8.365595818E0
3.082205191E1,-3.136500120E-1,1.568249941E0,8.408693314E0
3.092212118E1,5.818088055E-1,2.722290516E0,6.768614769E0
3.102218683E1,3.735068738E-1,4.513207912E0,9.332882881E0
3.112224498E1,2.992843628E0,5.411061287E0,9.816526413E0
3.122230783E1,-9.912297726E-1,2.145270348E0,1.074550533E1
3.132237564E1,-4.261809289E-1,1.608952641E0,6.074275017E0
3.142244569E1,1.197137404E-2,3.759011507E0,7.355212212E0
3.152250894E1,-1.747820675E-1,4.953754425E0,9.526819229E0
3.162258272E1,3.088614643E-1,5.597814560E0,1.098732662E1
3.172265007E1,1.324033976E0,1.640078187E0,1.098253822E1
3.182271932E1,-3.088614643E-1,1.628106833E0,5.482889175E0
3.192278103E1,9.337671846E-2,2.418217659E0,7.053533554E0
3.202285318E1,1.436564885E-2,4.024775982E0,1.002482891E1
3.212291760E1,1.592192769E0,4.070267200E0,1.015411949E1
3.222298015E1,-8.140534163E-1,1.410227895E0,1.401129627E1
3.232306163E1,1.180377483E0,1.881899953E0,5.992869854E0
3.242311242E1,-1.197137386E-1,3.237059593E0,8.451789856E0
3.252317560E1,-5.267404765E-2,4.235472202E0,7.738296032E0
3.262325192E1,-1.747820675E-1,6.258634567E0,9.325700760E0
3.272332161E1,-2.346389294E-1,5.087833881E0,1.213179016E1
3.282338189E1,-1.218685865E0,2.624125242E0,7.513234138E0
3.292344893E1,-6.895511150E-1,2.336812258E0,7.115784645E0
3.302351721E1,-2.609759569E-1,3.170019865E0,7.654496670E0
3.312358790E1,1.802888989E0,5.250644684E0,1.103521252E1
3.322366674E1,1.146857619E0,5.583448887E0,1.166730118E1
3.332371729E1,7.853221297E-1,3.533949614E0,1.149251938E1
3.342378920E1,6.512427330E-1,2.485257149E0,5.549929142E0
3.352404661E1,-7.182824612E-2,3.684788942E0,7.915472507E0
3.362411799E1,-5.051919818E-1,4.860377789E0,7.577879906E0
3.372418234E1,3.112557158E-2,4.893897533E0,1.128661156E1
3.382424992E1,-3.112557158E-2,2.916226625E0,1.313738632E1
3.392432317E1,9.672870040E-1,3.474092722E0,5.760625362E0
3.402438818E1,4.022381604E-1,3.174808502E0,6.771008968E0
3.412445260E1,7.206767201E-1,4.113364220E0,8.255459785E0
3.422452258E1,2.636096478E0,5.123748302E0,8.499675751E0
3.432458476E1,3.919427872E0,4.029564381E0,1.375510883E1
3.442465094E1,9.170072675E-1,2.767781734E0,7.676044941E0
3.452471666E1,6.440598965E-1,4.012804508E0,4.925023079E0
3.462478504E1,1.604164094E-1,4.793338299E0,7.601822376E0
3.472485215E1,-2.128510237E0,5.906675816E0,1.014214802E1
3.482492417E1,1.388679445E-1,6.883540154E0,1.596263027E1
3.492498788E1,-2.657645047E-1,3.507612705E0,7.185218811E0
3.502506503E1,1.678386688E0,3.079037428E0,8.183630943E0
3.512512191E1,1.474873304E0,2.123721838E0,5.214730740E0
3.522519292E1,2.171607256E0,4.915446281E0,8.655303001E0
3.532525600E1,2.264983892E0,6.028783798E0,1.044861507E1
3.542532625E1,1.908236980E0,3.945764780E0,1.191630554E1
3.552538394E1,2.825244367E-1,2.463708878E0,6.033572674E0
3.562545555E1,4.070267081E-2,3.859570980E0,7.666468143E0
3.572553037E1,-8.763045669E-1,4.872349262E0,8.334470749E0
3.582559598E1,5.387118459E-1,6.337645531E0,9.912297249E0
3.592566610E1,8.092648983E-1,3.905062199E0,1.502646828E1
3.602572862E1,-1.484450400E-1,2.492439985E0,7.190007210E0
3.612579846E1,9.768640995E-1,3.275367975E0,7.352818012E0
3.622586068E1,2.154847383E-1,3.512401104E0,7.285778046E0
3.632592676E1,1.944151163E0,5.722316742E0,1.111182976E1
3.642599400E1,3.684788942E0,8.083071709E0,1.293626690E1
3.652607455E1,5.267404765E-2,1.855562925E0,8.365595818E0
3.662612613E1,7.470137477E-1,2.209915638E0,6.213143349E0
3.672619448E1,4.357580245E-1,4.391099930E0,7.292961121E0
3.682626652E1,-9.002473354E-1,6.265817165E0,8.727131844E0
3.692634477E1,1.386285067E0,6.210748672E0,9.680052757E0
3.702639639E1,2.226675600E-1,3.203539610E0,1.056593513E1
3.712646477E1,-1.771763414E-1,2.858764172E0,7.048745155E0
3.722653045E1,6.943396926E-1,3.225088120E0,6.035966873E0
3.732661204E1,9.337671846E-2,5.066285610E0,8.253065109E0
3.742666769E1,1.891477108E0,6.426233768E0,9.586676598E0
3.752673530E1,5.411061049E-1,4.010410309E0,1.275430202E1
3.762680052E1,-7.182824612E-2,1.654443860E0,7.671256542E0
3.772688826E1,4.501236677E-1,3.284945011E0,5.949772835E0
3.782694015E1,-9.816526622E-2,5.025582790E0,7.790970325E0
3.792701213E1,-6.632141471E-1,6.146103382E0,1.169603252E1
3.802707067E1,2.657645047E-1,4.905869007E0,1.142547894E1
3.812713456E1,-2.777358890E-1,2.624125242E0,8.049551964E0
3.822720614E1,-3.232271075E-1,2.844398499E0,6.907482624E0
3.832727009E1,-5.722316504E-1,3.605777979E0,8.174054146E0
3.842733504E1,-3.447755575E-1,5.001639843E0,1.024989033E1
3.852739982E1,1.098972082E0,5.664854050E0,1.272317600E1
3.862746854E1,-1.891477108E-1,1.994430900E0,9.981731415E0
3.872754192E1,1.458113313E0,2.619336605E0,5.868367672E0
3.882760417E1,-2.585816681E-1,3.349590540E0,7.968146324E0
3.892767935E1,-8.044763207E-1,4.872349262E0,8.281796455E0
3.902774324E1,-3.591412306E-1,6.103006363E0,1.087719059E1
3.912782515E1,2.298503816E-1,3.919427872E0,1.468887615E1
3.922789640E1,-1.158828974E0,2.123721838E0,7.360000610E0
3.932794634E1,3.399870098E-1,2.786935806E0,5.952167034E0
3.942801403E1,-1.407833576E0,3.275367975E0,7.173247337E0
3.952807794E1,-4.764606953E-1,4.623344421E0,1.271120453E1
3.962814549E1,6.225114465E-1,4.999245644E0,1.231854343E1
3.972821208E1,4.070267081E-1,2.631308079E0,9.897932053E0
3.982828193E1,5.482889414E-1,2.363149166E0,6.586649895E0
3.992834304E1,-2.873129770E-2,3.799714088E0,6.785374641E0
4.002841219E1,-1.817254543E0,5.511620522E0,9.589070320E0
4.012848300E1,3.615354896E-1,5.559505939E0,1.156195259E1
4.022854382E1,4.716721475E-1,3.088614464E0,1.031692982E1
4.032861273E1,-3.591412306E-1,2.511594296E0,7.043956280E0
4.042868748E1,3.328042030E-1,3.170019865E0,7.369577885E0
4.052873839E1,-1.149251938E0,4.065478802E0,7.695199013E0
4.062881684E1,6.608198285E-1,5.336838722E0,1.189475727E1
4.073077620E1,1.750214934E0,4.987274647E0,1.234248638E1
4.083084791E1,7.326480746E-1,2.695953369E0,7.862798691E0
4.093090532E1,4.956148863E-1,2.791724443E0,5.394300938E0
4.103097190E1,1.699935049E-1,4.019987583E0,8.190814018E0
4.113104279E1,-3.208328187E-1,5.056708336E0,9.158101082E0
4.123111473E1,9.457385540E-1,6.624958515E0,1.186842060E1
4.133117394E1,7.326480746E-1,2.595393896E0,7.017619610E0
4.143125876E1,-3.543526828E-1,2.648067951E0,6.751854897E0
4.153130031E1,5.482889414E-1,2.904255390E0,6.457359314E0
4.163137336E1,1.010383964E0,3.754222870E0,8.956981659E0
4.173144730E1,2.576239586E0,5.185999393E0,8.605023384E0
4.183150865E1,1.031932473E0,3.799714088E0,1.520125103E1
4.193157977E1,9.050358534E-1,1.778946161E0,6.177228928E0
4.203164315E1,8.810931444E-1,3.016786337E0,6.579467297E0
4.213171063E1,1.340793967E-1,4.053507328E0,8.504464149E0
4.223177882E1,-9.050358534E-1,5.669642925E0,1.177983189E1
4.233185243E1,4.788549617E-3,4.642498970E0,1.123872566E1
4.243191528E1,-2.777358890E-1,2.047105074E0,7.448588848E0
4.253197519E1,4.094209969E-1,2.329629421E0,8.736708641E0
4.263204824E1,9.577099234E-3,2.755810261E0,6.897905827E0
4.273211622E1,-1.197137386E-1,4.721509933E0,1.031453609E1
4.283219114E1,1.120520592E0,5.473312378E0,1.099211597E1
4.293224815E1,-1.412622184E-1,2.097384691E0,1.095380688E1
4.303231464E1,4.166038036E-1,1.714300752E0,7.850827217E0
4.313238402E1,4.213923812E-1,3.201145411E0,6.763826370E0
4.323245317E1,-1.573038578E0,5.624151707E0,9.823709488E0
4.333252148E1,4.549122155E-1,5.312895775E0,1.015172482E1
4.343258682E1,8.140534163E-2,1.913025618E0,1.536645603E1
4.353264904E1,-1.819648892E-1,2.317657948E0,6.684815407E0
4.363271686E1,7.182824425E-3,2.540325642E0,6.687209606E0
4.373278514E1,-8.715160489E-1,2.875524044E0,8.083071709E0
4.383286072E1,1.515576005E0,4.429408550E0,1.162659836E1
4.393292273E1,8.212362528E-1,3.368744612E0,1.516773129E1
4.403298718E1,3.304099143E-1,1.774157643E0,8.511647224E0
4.413305260E1,1.975276709E0,2.504411459E0,6.136526108E0
4.423312371E1,2.585816681E-1,3.797319889E0,6.919454098E0
4.433319279E1,-2.825244367E-1,5.511620522E0,9.399923325E0
4.443326014E1,7.398309112E-1,5.774991035E0,1.167208958E1
4.453331476E1,1.709512234E0,2.746233225E0,9.081484795E0
4.463338700E1,-9.529213905E-1,1.750214934E0,8.602629662E0
4.473345532E1,8.164477348E-1,2.363149166E0,5.530774593E0
4.483352293E1,-1.771763414E-1,3.553103924E0,7.934626579E0
4.493359095E1,1.920208454E0,5.140508175E0,1.189954567E1
4.503365816E1,2.056682110E0,4.520390987E0,1.402805614E1
4.513372901E1,9.457385540E-1,1.340793848E0,9.648927689E0
4.523381153E1,7.829278708E-1,1.893871427E0,4.400677204E0
4.533386957E1,1.340793967E-1,3.964919090E0,7.594639778E0
4.543393442E1,-1.161223292E0,5.492466450E0,1.144223976E1
4.553398880E1,1.173194647E-1,5.631334305E0,1.213897324E1
4.563406385E1,2.106961906E-1,2.205127001E0,6.972128391E0
4.573413740E1,-6.943397224E-2,2.535537004E0,7.711959362E0
4.583419832E1,-1.364736706E-1,2.952140808E0,7.118178844E0
4.593427256E1,1.436564922E-1,4.027170181E0,9.225140572E0
4.603433278E1,1.474873304E0,4.841223717E0,9.514847755E0
4.613440196E1,5.865973234E-1,3.098191500E0,1.368806934E1
4.623447934E1,8.260248303E-1,1.845985889E0,7.831672668E0
4.633453675E1,9.122186899E-1,3.251425266E0,5.506832123E0
4.643460507E1,6.847625971E-1,4.443774223E0,8.676852226E0
4.653466562E1,-4.046324492E-1,5.490072250E0,1.093944168E1
4.663472814E1,5.626545548E-1,5.114171028E0,1.194982529E1
4.673479822E1,1.604164094E-1,2.521171331E0,6.931425571E0
4.683486936E1,5.267404318E-1,2.688770533E0,8.174054146E0
4.693494508E1,6.225114465E-1,3.198751211E0,7.630553722E0
4.703500426E1,6.368771195E-1,4.527573586E0,9.835680962E0
4.713507654E1,1.977671027E0,5.423032284E0,1.076226521E1
4.723513282E1,6.225114465E-1,2.791724443E0,1.222516727E1
4.733521854E1,9.313728809E-1,1.465296149E0,7.122967720E0
4.743526722E1,4.764606953E-1,2.935380936E0,6.103006363E0
4.753532881E1,6.392713785E-1,5.300924301E0,8.540378571E0
4.763541139E1,6.680026650E-1,5.569083214E0,1.121238899E1
4.773547567E1,5.602602959E-1,4.577853203E0,1.275190735E1
4.783553622E1,-4.620950520E-1,3.301704884E0,8.499675751E0
4.793571440E1,-1.532335877E-1,4.022381783E0,7.532388687E0
4.803577338E1,-8.667274714E-1,4.247443676E0,7.450983047E0
4.813584160E1,5.075862408E-1,4.826858044E0,1.003201103E1
4.823591351E1,1.345582485E0,4.369551659E0,1.401608467E1
4.833597470E1,-2.777358890E-1,3.313676357E0,7.716747761E0
4.843604167E1,-6.703969836E-2,3.852388144E0,7.192401409E0
4.853610129E1,-5.794144869E-1,4.551516533E0,7.434223175E0
4.863617544E1,-1.259388566E0,5.600208759E0,9.311334610E0
4.873624812E1,-1.034326673E0,4.831646442E0,9.699207306E0
4.883631153E1,-7.805336118E-1,3.256213665E0,9.979337692E0
4.893637845E1,-8.954587579E-1,3.457332850E0,8.396721840E0
4.903644533E1,-3.256213665E-1,3.682394743E0,6.701575279E0
4.913651308E1,2.561874092E-1,5.075862408E0,9.665687561E0
4.923658096E1,6.081457734E-1,5.490072250E0,9.639349937E0
4.933664667E1,3.280156553E-1,4.309694767E0,1.168884945E1
4.943671662E1,-7.685621977E-1,2.997632027E0,7.010436535E0
4.953677246E1,1.556278616E-1,4.209135056E0,6.337645531E0
4.963684692E1,-4.788549617E-2,5.387118340E0,7.738296032E0
4.973692120E1,-5.650488734E-1,7.110996246E0,9.313729286E0
4.983698108E1,-6.320885420E-1,5.695979595E0,1.185166073E1
4.993705156E1,-5.674431324E-1,3.557892323E0,7.814912796E0
5.003711651E1,-1.017566800E0,3.435784340E0,6.682421207E0
5.013718963E1,4.070267081E-2,3.845205307E0,6.902694225E0
5.023725671E1,5.267404318E-1,5.126142502E0,8.265036583E0
5.033732079E1,2.154847234E-2,5.755836487E0,8.990502357E0
5.043739037E1,4.046324492E-1,4.391099930E0,1.153082752E1
5.053744418E1,-1.936968327E0,2.475680113E0,8.844450951E0
5.063751780E1,-6.775797606E-1,3.237059593E0,6.952973843E0
5.073759152E1,4.711932659E0,3.847599506E0,1.537842751E1
5.083766590E1,-6.943396926E-1,4.819674969E0,1.183729458E1
5.093772425E1,-1.252205729E0,3.256213665E0,1.359708691E1
5.103779486E1,-3.687183261E-1,1.098972082E0,9.519637108E0
5.113785507E1,-8.499675393E-1,2.224281311E0,8.126168251E0
5.123792796E1,-2.178790122E-1,3.689577579E0,8.499675751E0
5.133798824E1,-5.195576549E-1,4.623344421E0,1.052523232E1
5.143805566E1,6.847625971E-1,3.567469358E0,1.030495834E1
5.153811923E1,-4.573064744E-1,8.403904438E-1,9.158101082E0
5.163820025E1,-5.123748183E-1,1.905842781E0,7.941809654E0
5.173825810E1,-1.822043180E0,3.373533249E0,6.842837334E0
5.183832481E1,-2.255406857E0,4.915446281E0,7.410280704E0
5.193839480E1,-1.623318315E0,4.743058205E0,7.817307472E0
5.203846954E1,-2.801301479E0,3.294522047E0,1.131773663E1
5.213852542E1,-1.606558442E0,1.482056141E0,7.860404015E0
5.223859251E1,-9.146129489E-1,2.590605259E0,7.707170486E0
5.233866323E1,-4.764606953E-1,3.004814863E0,8.334470749E0
5.243872651E1,1.628106833E-1,3.636903524E0,1.033368969E1
5.253878599E1,3.280156553E-1,2.947352171E0,1.401608467E1
5.263886424E1,-3.926610649E-1,1.735849261E0,1.070480251E1
5.273893546E1,2.274561077E-1,1.534730196E0,7.288172722E0
5.283900381E1,-1.336005330E0,2.657644987E0,8.394327164E0
5.293906455E1,-4.142095447E-1,3.931399345E0,8.384750366E0
5.303913747E1,-7.565908432E-1,3.340013266E0,1.265613651E1
5.313920555E1,-7.589851022E-1,1.958516836E0,1.196419144E1
5.323926537E1,-2.310475111E0,6.081457734E-1,7.941809654E0
5.333933225E1,1.225868702E0,2.202732801E0,7.798152924E0
5.343939796E1,4.549122229E-2,3.390293121E0,6.107795238E0
5.353946334E1,-2.533142805E0,4.359974384E0,1.160983849E1
5.363953193E1,2.439765930E0,5.178816319E0,1.279261017E1
5.373960338E1,1.606558442E0,2.104567528E0,1.120760059E1
5.383966703E1,3.495641351E-1,2.478074312E0,5.396695614E0
5.393973421E1,4.022381604E-1,3.648874760E0,7.666468143E0
5.403980092E1,-4.860377908E-1,4.137306690E0,8.717555046E0
5.413987334E1,-7.063110471E-1,5.382329941E0,1.100169277E1
5.423994445E1,1.113337755E0,4.132518291E0,1.440635109E1
5.434001180E1,2.370332032E-1,2.837215662E0,7.726325035E0
5.444007449E1,5.004034638E-1,3.033546209E0,7.764633179E0
5.454013478E1,-3.519583941E-1,3.447755814E0,7.350423813E0
5.464020379E1,6.680026650E-1,4.771789551E0,1.144463348E1
5.474027458E1,6.440598965E-1,5.114171028E0,1.255797100E1
5.484034192E1,1.357553840E0,2.885101080E0,9.050358772E0
5.494040487E1,-2.394274808E-2,2.609759569E0,7.036773682E0
5.504048448E1,-6.225114316E-2,4.113364220E0,6.775797844E0
5.514054750E1,-6.991282701E-1,5.286558628E0,8.250671387E0
5.524251332E1,-5.746259689E-1,5.940196037E0,1.076226521E1
5.534258544E1,1.652049571E-1,2.097384691E0,9.581888199E0
5.544264799E1,-4.573064744E-1,2.669616461E0,7.819701672E0
5.554271333E1,-6.081457734E-1,3.277762175E0,6.352011204E0
5.564278328E1,-5.195576549E-1,4.319271564E0,9.138946533E0
5.574284906E1,7.063110471E-1,5.296135902E0,1.142787361E1
5.584292098E1,1.563461423E0,4.403071404E0,1.254360580E1
5.594298566E1,6.943396926E-1,2.751021862E0,8.066311836E0
5.604306350E1,-5.363175869E-1,3.201145411E0,7.412674904E0
5.614312812E1,-2.657645047E-1,4.410254002E0,6.651295185E0
5.624318480E1,-1.326428294E0,5.880339146E0,1.030735302E1
5.634325255E1,8.379961550E-2,6.751854897E0,1.327625370E1
5.644332333E1,-1.125309169E-1,2.758204460E0,6.665660858E0
5.654338114E1,6.991282701E-1,3.474092722E0,5.825270653E0
5.664346513E1,-7.182824612E-2,3.462121487E0,6.533976078E0
5.674352064E1,-6.847625971E-1,4.453351021E0,9.742303848E0
5.684359619E1,1.503604531E0,5.296135902E0,1.076226521E1
5.694365631E1,-8.858817071E-2,3.342407703E0,1.187560272E1
5.704372238E1,-3.375927508E-1,2.226675510E0,7.245075703E0
5.714379110E1,1.213897347E0,3.859570980E0,6.572284222E0
5.724385925E1,2.753416002E-1,4.781366825E0,8.851634026E0
5.734392286E1,-4.261809289E-1,5.832453251E0,1.105676079E1
5.744398974E1,-3.974496126E-1,4.537150860E0,1.223235035E1
5.754405046E1,-8.571503758E-1,1.922602654E0,6.565101624E0
5.764412368E1,6.512427330E-1,2.796513081E0,9.306546211E0
5.774419716E1,-2.370332032E-1,3.610566378E0,8.001666069E0
5.784426428E1,9.720755816E-1,5.150084972E0,1.193306541E1
5.794433042E1,1.498816013E0,4.585036278E0,1.218446445E1
5.804439727E1,8.068706393E-1,2.408640385E0,9.905115128E0
5.814446079E1,1.120520592E0,1.652049661E0,6.701575279E0
5.824452810E1,1.302485466E0,3.907456398E0,7.946598053E0
5.834460305E1,-5.123748183E-1,5.279376030E0,9.371191978E0
5.844466413E1,-3.591412306E-1,6.691998005E0,1.022834206E1
5.854472557E1,-2.035133541E-1,2.279349566E0,1.091549873E1
5.864479616E1,1.029538140E-1,2.873129845E0,5.889915943E0
5.874486711E1,2.897072434E-1,3.069460392E0,6.440599442E0
5.884493092E1,-6.632141471E-1,4.264203548E0,8.188420296E0
5.894499893E1,1.877111435E0,6.079063892E0,9.636956215E0
5.904506738E1,6.680026650E-1,3.761405706E0,1.331695652E1
5.914513163E1,1.173194647E-1,2.411034822E0,7.393520832E0
5.924521181E1,8.691217303E-1,3.498035431E0,5.968926907E0
5.934527376E1,-9.337671846E-2,4.850800991E0,7.723930359E0
5.944533234E1,-2.298503816E-1,6.313702583E0,1.051086617E1
5.954539252E1,-1.532335877E-1,5.798933506E0,9.715967178E0
5.964547084E1,-3.471698463E-1,3.086220264E0,6.881145954E0
5.974555002E1,7.398309112E-1,3.550709486E0,8.710371971E0
5.984560477E1,-7.901106775E-2,3.481275558E0,5.810904980E0
5.994566965E1,9.337671846E-2,5.284164429E0,9.234718323E0
6.004573586E1,2.080624819E0,6.124555111E0,1.115971470E1
6.014580474E1,3.687183261E-1,3.490852594E0,1.238079548E1
6.024587269E1,7.494080067E-1,1.908236980E0,6.174834728E0
6.034594274E1,7.422251701E-1,3.205934048E0,5.952167034E0
6.044600315E1,3.735068738E-1,5.106987953E0,8.734314919E0
6.054606787E1,-4.285751879E-1,6.538764477E0,1.067846584E1
6.064614215E1,2.537931204E-1,5.420638084E0,1.219883060E1
6.074621076E1,-5.027977005E-2,3.057488918E0,6.320885658E0
6.084627421E1,9.792584181E-1,3.234665155E0,7.972935200E0
6.094633999E1,7.518022656E-1,4.043930054E0,7.213950157E0
6.104640561E1,1.290514112E0,5.487678051E0,1.106154919E1
6.114647599E1,3.615354896E-1,5.516408920E0,1.020679379E1
6.124655674E1,1.546701550E0,2.389486313E0,1.009905148E1
6.134660902E1,1.857957244E0,2.080624819E0,5.638517380E0
6.144667453E1,-2.585816681E-1,3.610566378E0,7.913078308E0
6.154674081E1,1.166011810E0,5.494860649E0,6.744672298E0
6.164681240E1,1.063058019E0,6.481301785E0,1.098253822E1
6.174687535E1,1.340793967E-1,3.895485163E0,1.309668350E1
6.184694376E1,-4.668835998E-1,3.000026226E0,6.742278099E0
6.194701121E1,3.399870098E-1,3.653663397E0,5.784567833E0
6.204707702E1,-8.619388938E-2,3.914639235E0,7.472531796E0
6.214715704E1,1.216291547E0,5.770202160E0,1.106873226E1
6.224721478E1,7.901107073E-1,5.968926907E0,1.368088627E1
6.234728580E1,8.715160489E-1,2.597788095E0,9.227535248E0
6.244734708E1,1.362342358E0,2.332023621E0,6.112583637E0
6.254770865E1,8.236305118E-1,4.233078003E0,6.838048935E0
6.264778403E1,6.201171875E-1,6.055120945E0,8.614601135E0
6.274784971E1,5.626545548E-1,6.431022167E0,1.132252598E1
6.284792709E1,1.522758722E0,3.361561775E0,9.909903526E0
6.294798524E1,4.501236677E-1,2.631308079E0,6.275394440E0
6.304805262E1,7.589851022E-1,3.433390141E0,5.257827282E0
6.314811837E1,1.053480864E0,4.745452881E0,7.513234138E0
6.324818522E1,2.154847383E0,6.385530949E0,1.029298782E1
6.334825660E1,5.722316504E-1,5.628940105E0,1.107352066E1
6.344833375E1,-5.626545548E-1,2.116539001E0,1.019961071E1
6.354838094E1,1.077423692E0,2.339206457E0,7.103813171E0
6.364845699E1,6.536370516E-1,4.563488007E0,7.544359684E0
6.374852057E1,2.968900800E-1,6.170046329E0,8.810931206E0
6.384858835E1,2.753416002E-1,5.504437923E0,1.013257122E1
6.394865630E1,5.387118459E-1,2.988054991E0,1.189954567E1
6.404872731E1,-1.771763414E-1,2.930592299E0,7.616188049E0
6.414879419E1,3.519583941E-1,3.869148016E0,5.748653889E0
6.424886144E1,-7.182824612E-1,4.290540695E0,7.211555958E0
6.434892422E1,2.873129845E-1,5.389512539E0,1.010383987E1
6.444899220E1,1.053480953E-1,5.310501575E0,1.256276035E1
6.454906015E1,8.619388938E-2,2.466103077E0,1.080775642E1
6.464912543E1,1.110943556E0,2.978477955E0,5.370358467E0
6.474919998E1,5.411061049E-1,5.013611317E0,6.900300026E0
6.484926872E1,-1.613741279E0,6.064698219E0,1.025467873E1
6.494932877E1,-8.595446348E-1,6.110189438E0,9.194015503E0
6.504939578E1,-9.912297726E-1,3.325647593E0,7.731113434E0
6.514946747E1,-3.567469418E-1,3.055094719E0,8.075888634E0
6.524953418E1,4.501236677E-1,3.591412306E0,5.729499817E0
6.534959523E1,-7.996878028E-1,5.185999393E0,8.810931206E0
6.544966414E1,1.000806928E0,6.083852291E0,9.732727051E0
6.554972756E1,-1.098972082E0,4.568276405E0,1.391791916E1
6.564980154E1,0.000000000E0,2.238646984E0,8.717555046E0
6.574987089E1,1.640078187E0,3.028757572E0,4.520390987E0
6.584993114E1,-4.118152559E-1,4.786155224E0,6.871568680E0
6.594999985E1,-5.578660369E-1,6.220325947E0,9.601041794E0
6.605006780E1,9.337671846E-2,5.988081455E0,8.889942169E0
6.615013168E1,-6.751855016E-1,3.047911882E0,9.838075638E0
6.625020376E1,-4.860377908E-1,3.284945011E0,7.360000610E0
6.635026801E1,-1.675992459E-2,3.186779737E0,6.694392204E0
6.645033506E1,2.705530524E-1,4.448562622E0,8.954587936E0
6.655039390E1,1.027143836E0,6.098217964E0,1.002243423E1
6.665046882E1,-6.680026650E-1,5.693585396E0,1.336723614E1
6.675053920E1,6.536370516E-1,3.014391899E0,9.098244667E0
6.685060769E1,3.112557158E-2,2.478074312E0,5.047131062E0
6.695066857E1,-3.280156553E-1,4.376734257E0,7.053533554E0
6.705073628E1,-6.799740195E-1,6.057515144E0,9.031204224E0
6.715080956E1,-2.490045726E-1,6.306519985E0,8.973741531E0
6.725087172E1,-1.666415215E0,3.859570980E0,1.197376823E1
6.735094403E1,-5.027977228E-1,3.344801903E0,7.297749519E0
6.745101645E1,3.112557232E-1,3.373533249E0,5.837242126E0
6.755108897E1,-1.637683988E0,4.438985348E0,8.779806137E0
6.765114138E1,6.296942830E-1,5.399089813E0,9.780612946E0
6.775120547E1,-4.716721475E-1,4.740664005E0,1.139195919E1
6.785127542E1,-5.339232683E-1,2.925803900E0,9.902720451E0
6.795134436E1,5.578660369E-1,3.586623669E0,5.346415520E0
6.805140744E1,4.261809289E-1,5.327261448E0,6.821289062E0
6.815147409E1,-1.484450400E-1,6.009629726E0,9.720755577E0
6.825154204E1,-9.577099234E-2,6.088640690E0,1.150209618E1
6.835161305E1,9.098244458E-2,3.160442829E0,7.096630573E0
6.845167787E1,1.771763414E-1,3.804502726E0,6.476513386E0
6.855174205E1,-6.560313106E-1,3.749434233E0,7.458166122E0
6.865181054E1,-1.268965602E-1,5.387118340E0,9.909903526E0
6.875188639E1,1.122914910E0,6.375953674E0,1.089395046E1
6.885195150E1,1.460507661E-1,3.754222870E0,1.331216812E1
6.895201151E1,1.285725594E0,2.446948767E0,6.091034889E0
6.905208096E1,8.379961550E-2,3.706337452E0,5.485283375E0
6.915215271E1,-2.274561077E-1,5.499649048E0,8.370385170E0
6.925221295E1,-9.505270720E-1,6.411868095E0,1.065691757E1
6.935228653E1,-7.972934842E-1,4.936994553E0,1.497140026E1
6.945235121E1,-1.122914910E0,2.801301479E0,6.059909344E0
6.955241319E1,8.140534163E-1,3.828445435E0,7.084659100E0
6.965248038E1,-3.591412306E-2,4.051113129E0,8.387145042E0
6.975272197E1,5.482889414E-1,4.980091572E0,1.218925285E1
6.985278762E1,6.823683381E-1,5.219519138E0,1.431297493E1
6.995285484E1,1.168406129E0,2.751021862E0,9.385557175E0
7.005292315E1,9.146129489E-1,2.332023621E0,5.408666611E0
7.015298856E1,3.902668059E-1,3.562680960E0,7.611399651E0
7.025305807E1,8.379961550E-2,5.612180233E0,8.128562927E0
7.035312396E1,-1.079817891E0,6.380742550E0,1.183011150E1
7.045319910E1,1.029538155E0,4.034353256E0,1.220601273E1
7.055325208E1,-1.812466025E0,2.683982134E0,6.452570438E0
7.065332590E1,2.370332032E-1,3.083826065E0,6.265817165E0
7.075339282E1,-3.112557232E-1,4.024775982E0,6.950579643E0
7.085345946E1,1.094183564E0,5.698374271E0,1.033608437E1
7.095352594E1,2.849186957E-1,4.898686409E0,1.370482922E1
7.105359856E1,7.829278708E-1,3.237059593E0,8.849239349E0
7.115366344E1,1.216291547E0,2.758204460E0,6.452570438E0
7.125373822E1,-3.112557158E-2,3.713520288E0,7.149304390E0
7.135379484E1,-4.788549617E-3,5.573871613E0,7.759844780E0
7.145387248E1,-2.178790122E-1,6.514821529E0,1.041509533E1
7.155393176E1,-1.412622184E-1,3.739857197E0,1.191391182E1
7.165399665E1,-6.368771195E-1,2.820455790E0,7.388731956E0
7.175406496E1,1.158828974E0,3.457332850E0,6.172440529E0
7.185413058E1,-1.436564885E-2,4.699961662E0,7.415069103E0
7.195419819E1,1.711906433E0,5.844424725E0,1.029777622E1
7.205426511E1,7.685621977E-1,3.986467600E0,1.147815323E1
7.215433242E1,1.553884387E0,2.276955366E0,9.636956215E0
7.225440001E1,1.027143836E0,3.328042030E0,5.573871613E0
7.235446932E1,6.751855016E-1,5.032765865E0,7.333663940E0
7.245453357E1,-3.495641351E-1,6.311308384E0,9.522030830E0
7.255460026E1,2.490045726E-1,6.129343510E0,9.634561539E0
7.265466768E1,1.340793967E-1,3.335224867E0,1.013496494E1
7.275473626E1,2.322446555E-1,3.457332850E0,7.807730198E0
7.285480177E1,6.225114465E-1,3.438178539E0,5.746259689E0
7.295486885E1,-2.681587934E-1,4.647287369E0,7.743084908E0
7.305493656E1,1.790917516E0,6.244268894E0,9.543579102E0
7.315501024E1,1.316851079E-1,4.520390987E0,1.473197269E1
7.325508223E1,6.632141471E-1,3.031152010E0,7.905895233E0
7.335513820E1,8.427847624E-1,3.517189741E0,4.915446281E0
7.345520362E1,2.106961906E-1,5.111776829E0,7.115784645E0
7.355526917E1,-8.284190893E-1,6.050332546E0,9.830892563E0
7.365534295E1,-6.799740195E-1,6.160469055E0,9.718361855E0
7.375540567E1,7.182824612E-2,3.395081758E0,9.210775375E0
7.385547955E1,9.170072675E-1,3.706337452E0,7.070293427E0
7.395553993E1,1.139674783E0,3.782954216E0,6.124555111E0
7.405561121E1,1.532335877E-1,4.668835640E0,8.760651588E0
7.415567779E1,2.308080912E0,6.129343510E0,9.723150253E0
7.425574624E1,1.364736706E-1,3.450150013E0,1.335765934E1
7.435580882E1,1.211503029E0,2.272166729E0,6.258634567E0
7.445588141E1,6.895511150E-1,3.411841631E0,6.474119186E0
7.455594136E1,1.604164094E-1,4.999245644E0,7.532388687E0
7.465600960E1,-9.241901040E-1,6.706363678E0,9.953000069E0
7.475609135E1,-4.213923812E-1,7.122967720E0,1.204559612E1
7.485614880E1,2.825244367E-1,3.888302326E0,9.167677879E0
7.495621908E1,4.166038036E-1,3.526766777E0,7.228315830E0
7.505627776E1,1.125309169E-1,3.725491524E0,6.110189438E0
7.515634524E1,5.530774593E-1,5.518803596E0,9.574705124E0
7.525641446E1,1.110943556E0,7.144515991E0,1.124351406E1
7.535648247E1,1.958516836E0,4.261809349E0,1.304640388E1
7.545656102E1,1.132491946E0,2.947352171E0,6.201171875E0
7.555660841E1,3.998439014E-1,3.636903524E0,6.435810566E0
7.565668602E1,5.506832004E-1,5.427821159E0,6.524398804E0
7.575675651E1,-3.256213665E-1,6.838048935E0,1.033368969E1
7.585682476E1,-6.943396926E-1,6.014418125E0,1.389637089E1
7.595688563E1,-2.849186957E-1,3.632114887E0,7.391126156E0
7.605694908E1,9.792584181E-1,4.084632874E0,6.565101624E0
7.615702230E1,6.703969836E-2,4.429408550E0,6.431022167E0
7.625708281E1,1.041509509E0,5.882733345E0,1.143266201E1
7.635715270E1,1.522758722E0,6.354405403E0,1.237600613E1
7.645722278E1,9.289786220E-1,3.593806505E0,9.591464996E0
7.655728039E1,3.447755575E-1,3.519583941E0,6.498061657E0
7.665735891E1,4.620950520E-1,5.097411156E0,6.926637173E0
7.675743559E1,-2.825244367E-1,6.174834728E0,7.190007210E0
7.685749017E1,-7.087053657E-1,6.782980442E0,1.002482891E1
7.695755662E1,1.558672905E0,4.036747456E0,1.113577175E1
7.705770322E1,-1.891477108E-1,3.402264595E0,6.689603806E0
7.715777437E1,3.351984918E-2,3.984073162E0,5.490072250E0
7.725783641E1,1.484450400E-1,4.889109135E0,8.068706512E0
7.735791162E1,1.462901950E0,5.779779434E0,1.006313705E1
7.745796891E1,1.175588965E0,5.734288216E0,1.195940304E1
7.755802998E1,1.292908341E-1,3.158048391E0,8.401510239E0
7.765810300E1,1.115732074E0,3.521978140E0,5.734288216E0
7.775817178E1,6.895511150E-1,4.506025314E0,6.850020409E0
7.785823680E1,-4.620950520E-1,5.988081455E0,9.366402626E0
7.795830528E1,-4.166038036E-1,6.395108223E0,9.797372818E0
7.805837120E1,3.112557232E-1,3.560286522E0,1.053959751E1
7.815843938E1,7.637736797E-1,3.351984739E0,6.926637173E0
7.825850646E1,1.036720991E0,3.225088120E0,5.537957668E0
7.835857331E1,5.698373914E-1,4.549122334E0,8.186025620E0
7.845864076E1,1.829225898E0,6.383136749E0,9.375980377E0
7.855870751E1,5.794144869E-1,4.668835640E0,1.437762070E1
7.865877359E1,4.405465722E-1,2.825244188E0,7.197190285E0
7.875884781E1,2.394274771E-1,3.416630268E0,5.018400192E0
7.885891416E1,-1.340793967E-1,4.939388752E0,6.823683262E0
7.895897717E1,-1.429382086E0,7.280989647E0,1.075508213E1
7.905904365E1,3.782954216E-1,7.917866707E0,1.243107510E1
7.915911080E1,-3.902668059E-1,3.409447432E0,6.574678421E0
7.925918032E1,3.447755575E-1,3.208328247E0,8.585869789E0
7.935924793E1,1.034326673E0,3.790137053E0,5.672037125E0
7.945931871E1,1.690358043E0,5.695979595E0,1.006074238E1
7.955938116E1,1.525153041E0,6.854808807E0,1.166730118E1
7.965945191E1,1.786128998E0,4.027170181E0,1.136322784E1
7.975951559E1,1.283331275E0,2.549902678E0,5.396695614E0
7.985958700E1,1.180377483E0,3.811685562E0,6.390319347E0
7.995965062E1,6.225114316E-2,5.779779434E0,8.250671387E0
8.005972070E1,-4.477293789E-1,6.462147713E0,1.017087936E1
8.015978072E1,2.274561077E-1,4.649681568E0,1.432734013E1
8.025984846E1,-1.268965602E-1,3.514795303E0,7.120573044E0
8.035991578E1,3.184385598E-1,3.651269197E0,6.711152077E0
8.045999243E1,6.488484740E-1,4.314483166E0,6.809317589E0
8.056005144E1,2.200338602E0,5.676825523E0,1.006074238E1
8.066011909E1,1.110943556E0,5.729499817E0,1.238558388E1
8.076019237E1,9.170072675E-1,3.239453793E0,1.159307861E1
8.086025085E1,1.328822494E0,3.170019865E0,4.180403709E0
8.096032470E1,4.620950520E-1,3.976890564E0,8.363202095E0
8.106039011E1,-1.194743156E0,5.480494976E0,8.705583572E0
8.116045193E1,-7.422251999E-2,7.094236374E0,1.187320900E1
8.126052008E1,-3.519583941E-1,2.985660791E0,7.920260906E0
8.136059689E1,-1.029538155E0,3.028757572E0,7.410280704E0
8.146067128E1,1.338399649E0,3.359167576E0,5.743865490E0
8.156071699E1,-8.379961550E-2,3.823656797E0,9.574705124E0
8.166078731E1,1.635289669E0,5.425426483E0,8.142929077E0
8.176086723E1,4.405465722E-1,3.864359617E0,1.452127647E1
8.186092961E1,8.164477348E-1,2.391880512E0,7.460560322E0
8.196099039E1,1.362342358E0,3.170019865E0,4.778972626E0
8.206105654E1,9.577099085E-1,4.834040642E0,7.987300873E0
8.216112645E1,-1.019961119E0,6.220325947E0,1.012778282E1
8.226120216E1,1.436564922E-1,6.081458092E0,1.474633884E1
8.236126058E1,5.674431324E-1,3.421418667E0,7.125361919E0
8.246132582E1,7.901107073E-1,3.043123245E0,7.465348721E0
8.256138554E1,7.470137477E-1,3.533949614E0,6.138920784E0
8.266145845E1,2.207521439E0,5.389512539E0,1.131055450E1
8.276153017E1,1.649655342E0,6.747066498E0,1.255557728E1
8.286160105E1,5.698373914E-1,2.971295118E0,1.104000092E1
8.296166727E1,2.035133600E0,2.774964571E0,5.245856285E0
8.306173165E1,1.075029373E0,3.766194344E0,7.137333393E0
8.316179610E1,5.411061049E-1,5.423032284E0,7.601822376E0
8.326186745E1,2.705530524E-1,6.543552876E0,1.051565456E1
8.336192966E1,8.810931444E-1,4.178009510E0,1.243825722E1
8.346200198E1,7.972934842E-1,2.731867552E0,7.604216576E0
8.356205843E1,9.217957854E-1,2.889889717E0,6.179623127E0
8.366213018E1,3.902668059E-1,3.440572977E0,6.890722752E0
8.376220369E1,2.054287672E0,5.535563469E0,1.139674854E1
8.386226828E1,1.412622094E0,5.918647289E0,1.350370979E1
8.396233956E1,1.307274103E0,2.672010660E0,1.052762604E1
8.406240897E1,2.241041183E0,2.851581335E0,4.434196949E0
8.416246505E1,1.041509509E0,4.376734257E0,6.177228928E0
8.426254760E1,-3.543526828E-1,5.530774593E0,8.676852226E0
8.436281392E1,4.668835998E-1,6.091034889E0,1.030974770E1
8.446288340E1,3.806896806E-1,3.962524891E0,1.052283764E1
8.456294745E1,7.446194887E-1,3.500429869E0,7.175641537E0
8.466301333E1,1.213897347E0,3.122134447E0,5.832453251E0
8.476308435E1,3.878725171E-1,4.125335693E0,6.773403645E0
8.486314426E1,1.120520592E0,6.038361073E0,8.865999222E0
8.496321868E1,8.379961550E-2,4.589824677E0,1.603685188E1
8.506327949E1,1.283331275E0,2.473285913E0,6.984099388E0
8.516335217E1,2.432583094E0,3.234665155E0,5.164450645E0
8.526341362E1,2.968900800E-1,4.668835640E0,6.876357079E0
8.536347910E1,-6.751855016E-1,6.308914185E0,1.036960411E1
8.546355462E1,-3.064671755E-1,6.598621368E0,1.225629234E1
8.556360840E1,1.460507661E-1,3.361561775E0,8.047157288E0
8.566368102E1,2.202732861E-1,2.815667152E0,6.526793003E0
8.576375363E1,3.208328187E-1,3.215511084E0,6.428627968E0
8.586381632E1,1.122914910E0,5.008822918E0,9.838075638E0
8.596388316E1,1.855562925E0,6.012023926E0,1.017087936E1
8.606395271E1,1.922602654E0,4.199557781E0,1.289795876E1
8.616401706E1,1.996825218E0,2.454131603E0,6.462147713E0
8.626408461E1,1.185166001E0,3.476486921E0,5.633728504E0
8.636415412E1,-5.985686928E-2,5.272192955E0,8.458972931E0
8.646422200E1,-5.291347504E-1,6.378347874E0,9.871595383E0
8.656428752E1,1.757397652E0,5.178816319E0,1.436564922E1
8.666435376E1,-5.578660369E-1,3.016786337E0,6.663266659E0
8.676442414E1,1.254600048E0,3.656057596E0,7.529994488E0
8.686449256E1,2.322446555E-1,4.022381783E0,6.735095024E0
8.696455840E1,1.343188167E0,5.425426483E0,1.044861507E1
8.706462628E1,1.477267504E0,6.363982677E0,1.306316376E1
8.716469220E1,2.111750364E0,3.340013266E0,1.138477707E1
8.726476078E1,1.929785490E0,2.727078915E0,4.611373425E0
8.736482706E1,1.132491946E0,4.261809349E0,6.026389599E0
8.746490050E1,1.412622184E-1,5.636122704E0,8.597841263E0
8.756495242E1,7.422251999E-2,6.098217964E0,1.008468533E1
8.766502574E1,8.834874034E-1,4.127729893E0,1.213657856E1
8.776509789E1,2.418217510E-1,2.988054991E0,8.097437859E0
8.786516307E1,7.206767201E-1,3.849993944E0,6.878751755E0
8.796522988E1,5.650488734E-1,4.180403709E0,6.986494064E0
8.806529530E1,1.604164124E0,5.061496735E0,9.790189743E0
8.816535891E1,1.055875182E0,5.502043724E0,1.224911022E1
8.826542909E1,1.201925993E0,3.739857197E0,1.064733982E1
8.836549324E1,-1.005595401E-1,2.916226625E0,4.257020473E0
8.846556042E1,9.720755816E-1,5.126142502E0,7.087053299E0
8.856562737E1,-9.265843630E-1,6.186806202E0,9.897932053E0
8.866569442E1,-4.860377908E-1,6.514821529E0,9.577098846E0
8.876576064E1,6.296942830E-1,3.620143414E0,9.603436470E0
8.886583718E1,2.585816681E-1,3.615355015E0,7.125361919E0
8.896589706E1,8.020820618E-1,3.598595142E0,5.985687256E0
8.906597081E1,5.027977228E-1,4.527573586E0,9.900326729E0
8.916605102E1,1.814860344E0,6.498061657E0,1.193067169E1
8.926611414E1,6.536370516E-1,3.952947617E0,1.070240879E1
8.936616486E1,2.075836182E0,2.956929445E0,6.289760113E0
8.946623510E1,1.623318315E0,4.436591148E0,4.872349262E0
8.956630101E1,-1.120520592E0,5.870761871E0,7.350423813E0
8.966637126E1,1.127703428E0,7.115784645E0,9.141341209E0
8.976643788E1,-1.019961119E0,5.705556870E0,1.436325455E1
8.986650093E1,6.416656375E-1,4.209135056E0,7.652102470E0
8.996657044E1,8.356019258E-1,3.246636629E0,3.502824068E0
9.006664036E1,2.705530524E-1,5.142902374E0,5.578660488E0
9.016670877E1,3.517189741E0,7.223526955E0,9.383162498E0
9.026678062E1,3.847599506E0,8.142929077E0,8.664880753E0
9.036683487E1,7.901106775E-2,4.034353256E0,9.627379417E0
9.046690542E1,-2.159635782E0,4.400677204E0,5.221913338E0
9.056697034E1,4.644893110E-1,5.478100777E0,8.643332481E0
9.066705199E1,1.652049571E-1,6.095823765E0,1.177025509E1
9.076711521E1,2.394274808E-3,5.973715782E0,1.414537525E1
9.086717306E1,5.387118459E-1,3.579440832E0,7.529994488E0
9.096723850E1,-1.915419847E-2,2.463708878E0,4.676018715E0
9.106730565E1,-3.687183261E-1,3.699154615E0,6.565101624E0
9.116737893E1,1.568249941E0,5.576265812E0,1.036481571E1
9.126744341E1,2.171607256E0,6.155680656E0,1.164814663E1
9.136751256E1,1.012778282E0,3.557892323E0,1.205038548E1
9.146757858E1,1.889082789E0,2.482862949E0,6.404685020E0
9.156775551E1,1.065452337E0,3.184385538E0,7.266623974E0
9.166783642E1,1.699935049E-1,4.726298332E0,7.067899227E0
9.176789311E1,-2.968900800E-1,6.581861496E0,9.421471596E0
9.186796882E1,-2.154847383E-1,6.962551117E0,1.107112694E1
9.196802927E1,9.170072675E-1,4.628133297E0,9.488511086E0
9.206810338E1,-2.873129845E-1,2.901860952E0,6.182017326E0
9.216816253E1,1.915419847E-2,3.227482557E0,5.171633720E0
9.226824291E1,4.620950520E-1,5.200365067E0,7.300143719E0
9.236829889E1,2.554691315E0,6.229903221E0,1.049650097E1
9.246836414E1,7.494080067E-1,5.121353626E0,1.134407425E1
9.256842596E1,1.412622184E-1,3.251425266E0,9.368797302E0
9.266849731E1,1.304879785E0,3.083826065E0,5.276981831E0
9.276856469E1,4.740664065E-1,4.676018715E0,6.948185444E0
9.286863150E1,1.915419847E-2,5.504437923E0,9.471751213E0
9.296870235E1,-7.781392932E-1,6.526793003E0,1.214615631E1
9.306876596E1,2.094990492E0,5.382329941E0,7.874769688E0
9.316883614E1,1.316851079E-1,3.440572977E0,5.662459850E0
9.326890672E1,-3.830839694E-1,3.261002302E0,4.719115734E0
9.336897127E1,1.479661822E0,6.007235527E0,9.435836792E0
9.346904168E1,2.140481710E0,8.152505875E0,1.133928585E1
9.356910013E1,2.169213057E0,5.751048088E0,1.056354046E1
9.366917055E1,8.786988258E-1,3.294522047E0,7.506051540E0
9.376923626E1,1.297696948E0,4.381523132E0,5.114171028E0
9.386930334E1,1.661626697E0,6.383136749E0,7.970541000E0
9.396937133E1,1.070240855E0,6.311308384E0,8.121379852E0
9.406943817E1,5.458946824E-1,6.064698219E0,1.393228531E1
9.416950925E1,4.836435020E-1,3.454938650E0,7.211555958E0
9.426957650E1,5.267404765E-2,2.485257149E0,4.618556023E0
9.436964051E1,4.381522834E-1,4.027170181E0,8.032792091E0
9.446970749E1,2.013585091E0,5.679219723E0,1.007032013E1
9.456977078E1,1.245022863E-1,5.382329941E0,1.416452980E1
9.466984106E1,1.867534399E0,3.354378939E0,9.933846474E0
9.476991045E1,1.570644259E0,2.559479713E0,4.206740856E0
9.486998193E1,1.745426297E0,4.814886570E0,6.411868095E0
9.497004144E1,-4.309694767E-1,6.299336910E0,8.995290756E0
9.507011255E1,1.383890867E0,6.766220570E0,1.627388573E1
9.517017980E1,9.816526622E-2,3.988861799E0,7.510839939E0
9.527024785E1,1.221080124E-1,3.052700281E0,5.559505939E0
9.537031190E1,-1.628106833E-1,4.108575344E0,6.126949310E0
9.547038378E1,2.944957912E-1,5.786962032E0,9.246688843E0
9.557044223E1,1.053480864E0,7.027196407E0,1.054199219E1
9.567051478E1,4.261809289E-1,4.077449799E0,1.391313076E1
9.577058310E1,1.848380208E0,2.863552570E0,4.984879971E0
9.587064458E1,7.446194887E-1,3.663240433E0,4.723904133E0
9.597071596E1,8.140534163E-2,5.585843086E0,6.917059898E0
9.607078114E1,-7.948992252E-1,6.383136749E0,1.040551853E1
9.617085152E1,-2.341600657E0,6.591438770E0,1.453564262E1
9.627091270E1,5.889915824E-1,3.919427872E0,7.580274105E0
9.637098162E1,4.333637357E-1,2.930592299E0,5.339232922E0
9.647105287E1,1.156434774E0,3.964919090E0,6.079063892E0
9.657111408E1,1.637683988E0,5.794145107E0,9.797372818E0
9.667119376E1,1.115732074E0,6.957762718E0,1.353244114E1
9.677125871E1,1.771763325E0,3.962524891E0,1.203601933E1
9.687132533E1,2.911438227E0,2.734261751E0,3.591412306E0
9.697138371E1,8.356019258E-1,3.766194344E0,4.936994553E0
9.707145963E1,-3.902668059E-1,5.727105141E0,8.142929077E0
9.717152384E1,-8.667274714E-1,7.060716629E0,1.319724274E1
9.727158795E1,6.799740195E-1,5.317684174E0,1.048931789E1
9.737165287E1,2.154847383E-1,3.524372578E0,6.804529190E0
9.747172018E1,8.379961550E-2,3.445361376E0,5.423032284E0
9.757178460E1,-2.059076279E-1,4.798126698E0,7.060716629E0
9.767185371E1,3.998439014E-1,5.842030525E0,1.055635738E1
9.777192172E1,6.033572555E-1,4.510813713E0,1.437522602E1
9.787200110E1,6.225114465E-1,3.069460392E0,8.016032219E0
9.797205489E1,8.140534163E-1,3.399870157E0,5.229096413E0
9.807213093E1,-4.070267081E-1,4.690384388E0,7.764633179E0
9.817219401E1,-9.888355136E-1,5.722316742E0,9.639349937E0
9.827226340E1,-3.567469418E-1,6.134131908E0,1.364018345E1
9.837232265E1,-7.278595567E-1,3.079037428E0,8.090254784E0
9.847239550E1,1.053480953E-1,2.741444588E0,6.368771076E0
9.857245535E1,-4.333637357E-1,3.287339211E0,6.019207001E0
9.867252353E1,1.891477108E-1,4.767001152E0,9.179649353E0
9.877259921E1,1.412622094E0,5.542746067E0,1.174391747E1
9.887261183E1,2.394274771E-1,2.739050388E0,1.447578526E1
9.897267798E1,1.999219418E0,2.466103077E0,5.549929142E0
9.907274529E1,1.426987767E0,3.232270956E0,4.913052082E0
9.917281178E1,-7.422251999E-2,5.004034519E0,8.691217422E0
9.927289206E1,-1.996825218E0,6.562707424E0,1.099211597E1
9.937294524E1,-6.751855016E-1,4.764606953E0,1.478464699E1
9.947301219E1,3.280156553E-1,3.102980137E0,7.642525196E0
9.957308380E1,-1.173194647E-1,2.463708878E0,6.498061657E0
9.967315905E1,6.464542150E-1,3.668029070E0,6.196382999E0
9.977321420E1,2.370332003E0,5.224307537E0,1.167927265E1
9.987328478E1,4.429408312E-1,4.857983589E0,1.362581825E1
9.997335212E1,-3.088614643E-1,2.516382933E0,1.079339123E1
1.000734151E2,1.884294271E0,2.789330244E0,3.749434233E0
1.001734842E2,-2.681587934E-1,4.510813713E0,7.379155159E0
1.002735512E2,6.225114316E-2,6.363982677E0,1.024510193E1
1.003736247E2,4.285751879E-1,6.471724987E0,1.349652672E1
1.004736848E2,1.352765322E0,3.849993944E0,8.693612099E0
1.005737507E2,-3.687183261E-1,2.968900681E0,6.081458092E0
1.006738184E2,-1.201925993E0,2.825244188E0,6.241874218E0
1.007738860E2,1.324033976E0,5.109382629E0,9.854835510E0
1.008739528E2,1.271359921E0,6.079063892E0,1.087000751E1
1.009740227E2,2.633702159E-1,4.266597748E0,1.202165413E1
1.010740869E2,8.763045669E-1,2.669616461E0,6.110189438E0
1.011741565E2,2.322446555E-1,3.761405706E0,5.320078850E0
1.012742237E2,-4.070267081E-1,5.669642925E0,8.004060745E0
1.013742918E2,-1.486844659E0,6.385530949E0,1.025228500E1
1.014743636E2,-1.328822494E0,5.303318501E0,1.409509563E1
1.015744187E2,2.968900800E-1,3.718308687E0,6.809317589E0
1.016744907E2,-5.219519138E-1,2.743839025E0,4.570670605E0
1.017745658E2,-6.680026650E-1,4.958543301E0,8.913885117E0
1.018746258E2,1.082212210E0,5.906675816E0,8.837267876E0
1.019746914E2,9.624984860E-1,5.954561234E0,1.256276035E1
1.020747668E2,9.936240315E-1,3.560286522E0,9.009655952E0
1.021748245E2,1.458113313E0,3.581835032E0,4.929811954E0
1.022749042E2,3.375927508E-1,4.922628880E0,6.440599442E0
1.023749600E2,-7.829278708E-1,6.471724987E0,9.205986977E0
1.024750261E2,-1.544307232E0,6.292154312E0,1.136083412E1
1.025751084E2,1.460507661E-1,3.917033672E0,1.089395046E1
1.026751603E2,1.628106833E-1,3.002420664E0,6.347222328E0
1.027752312E2,-1.675992459E-2,3.239453793E0,5.822876453E0
1.028753054E2,-8.667274714E-1,5.260221958E0,9.419076920E0
1.029753790E2,1.735849261E0,6.277788639E0,1.012059975E1
1.030754363E2,1.005595401E-1,4.647287369E0,1.214615631E1
1.031754990E2,1.029538140E-1,2.873129845E0,9.680052757E0
1.032755637E2,1.561067224E0,3.131711483E0,4.118152618E0
1.033756303E2,8.954587579E-1,4.613767624E0,6.663266659E0
1.034757034E2,-8.739103079E-1,6.723123550E0,1.081254482E1
1.035757688E2,-1.771763414E-1,7.439012051E0,1.265853119E1
1.036758283E2,1.944151163E0,3.945764780E0,7.185218811E0
1.037759051E2,-4.788549542E-1,2.059076309E0,6.160469055E0
1.038759651E2,-6.488484740E-1,2.370332003E0,5.674431324E0
1.039760339E2,3.759011328E-1,4.699961662E0,1.048931789E1
1.040761048E2,2.667222023E0,6.974522591E0,1.090831566E1
1.041761680E2,4.213923812E-1,4.185192585E0,1.193785381E1
1.042762566E2,1.173194647E-1,2.628913641E0,8.114197731E0
1.043763016E2,4.812492430E-1,2.980872154E0,4.096604347E0
1.044763730E2,7.877163887E-1,5.241067410E0,7.269018173E0
1.045764309E2,-4.692778587E-1,6.371165276E0,1.081254482E1
1.046765019E2,-3.974496126E-1,6.239480019E0,1.532096481E1
1.047765715E2,-9.816526622E-2,3.488458395E0,6.835654736E0
1.048766425E2,-3.447755575E-1,2.976083517E0,6.016812801E0
1.049767090E2,-8.140534163E-1,3.416630268E0,6.651295185E0
1.050767765E2,1.886688590E0,5.693585396E0,1.002482891E1
1.051768414E2,4.166038036E-1,6.574678421E0,1.145660496E1
1.052769072E2,1.934574008E0,4.644893169E0,1.174631214E1
1.053769720E2,8.763045669E-1,2.715107679E0,6.023995399E0
1.054770392E2,1.034326673E0,3.768588543E0,5.212336063E0
1.055771094E2,-4.237866402E-1,5.834847927E0,8.894730568E0
1.056771752E2,-9.553156495E-1,7.376760483E0,1.026665020E1
1.057772404E2,1.987248063E-1,5.367964268E0,1.284767818E1
1.058773103E2,-5.004034638E-1,3.033546209E0,6.237085819E0
1.059773752E2,4.285751879E-1,3.179596901E0,5.389512539E0
1.060792688E2,4.812492430E-1,4.175615311E0,7.381549358E0
1.061793367E2,2.049499273E0,6.301731110E0,1.073353386E1
1.062794118E2,1.051086664E0,5.798933506E0,1.341991043E1
1.063794718E2,9.241901040E-1,3.739857197E0,1.006074238E1
1.064795352E2,7.422251701E-1,2.406246185E0,5.248250484E0
1.065796067E2,1.460507661E-1,3.962524891E0,5.741470814E0
1.066796714E2,-1.221080184E0,7.242681503E0,1.049171257E1
1.067797421E2,-1.180377483E0,8.099831581E0,1.441353416E1
1.068798115E2,2.842004299E0,3.457332850E0,1.032650757E1
1.069798766E2,-1.134886265E0,2.791724443E0,6.277788639E0
1.070799429E2,1.197137404E-2,2.755810261E0,5.037554264E0
1.071800229E2,1.350371003E0,5.092622280E0,6.347222328E0
1.072800731E2,2.253012657E0,6.663266659E0,1.100648117E1
1.073801398E2,4.644893110E-1,4.599401951E0,1.501449776E1
1.074802080E2,1.108549237E0,2.518777132E0,7.738296032E0
1.075802718E2,1.673598051E0,3.021574736E0,3.462121487E0
1.076803502E2,-9.816526622E-2,4.994457245E0,6.818894863E0
1.077804135E2,-9.888355136E-1,7.920260906E0,1.267050266E1
1.078804763E2,4.118152559E-1,7.860404015E0,1.113577175E1
1.079805437E2,8.858817071E-2,3.426207304E0,7.982511997E0
1.080806101E2,1.939362586E-1,2.401457548E0,5.727105141E0
1.081806782E2,4.956148863E-1,2.739050388E0,4.977697372E0
1.082807439E2,1.750214934E0,5.454157829E0,1.061621475E1
1.083808124E2,2.554691315E0,6.842837334E0,1.231375504E1
1.084808783E2,2.013585091E0,3.500429869E0,9.378374100E0
1.085809425E2,1.503604531E0,2.470891714E0,7.020013809E0
1.086810151E2,7.613793612E-1,3.670423269E0,5.588237286E0
1.087810843E2,7.494080067E-1,6.948185444E0,9.359220505E0
1.088811520E2,1.122914910E0,6.158074856E0,1.101366425E1
1.089812158E2,2.162030220E0,4.230683804E0,1.208390522E1
1.090812851E2,2.298503816E-1,2.715107679E0,6.407079220E0
1.091813500E2,1.338399649E0,2.992843628E0,5.648094177E0
1.092814170E2,1.175588965E0,4.798126698E0,7.807730198E0
1.093814841E2,2.327235222E0,6.110189438E0,1.138238239E1
1.094815513E2,2.092596292E0,5.894704342E0,1.445184231E1
1.095816152E2,1.233051538E0,2.602576733E0,7.623371124E0
1.096816894E2,-3.280156553E-1,2.437371731E0,6.828471661E0
1.097817558E2,5.004034638E-1,5.145296574E0,7.034379482E0
1.098818178E2,5.530774593E-1,7.381549358E0,9.608224869E0
1.099818908E2,-3.328042030E-1,6.634535313E0,1.225150394E1
1.100819526E2,9.601042271E-1,3.514795303E0,1.006553173E1
1.101820201E2,5.818088055E-1,3.390293121E0,5.729499817E0
1.102820971E2,-2.633702382E-2,3.739857197E0,6.907482624E0
1.103821529E2,1.843591630E-1,5.542746067E0,8.650514603E0
1.104822228E2,1.142069101E0,6.328068256E0,1.040312386E1
1.105822857E2,3.591412306E-2,4.395888329E0,1.109267521E1
1.106823571E2,4.764606953E-1,2.930592299E0,7.575485706E0
1.107824251E2,6.799740195E-1,3.739857197E0,4.357580185E0
1.108824901E2,9.050358534E-1,6.050332546E0,6.268211365E0
1.109825633E2,-1.240234375E0,7.185218811E0,1.280937004E1
1.110826237E2,-3.280156553E-1,3.632114887E0,1.185405445E1
1.111826987E2,1.738243461E0,3.399870157E0,5.233884811E0
1.112827641E2,-9.241901040E-1,2.025556564E0,6.299336910E0
1.113828326E2,1.156434774E0,4.379128456E0,8.351230621E0
1.114828905E2,1.946545362E0,6.392713547E0,1.038636398E1
1.115829548E2,9.840469360E-1,4.848406315E0,1.491872597E1
1.116830335E2,1.994430900E0,2.691164970E0,8.782199860E0
1.117830936E2,1.051086664E0,1.948939681E0,5.435003757E0
1.118831623E2,1.446141958E0,4.865166187E0,6.069486618E0
1.119832409E2,1.867534369E-1,7.541965485E0,1.041030693E1
1.120832948E2,1.628106833E-1,7.278595448E0,1.272317600E1
1.121833616E2,4.357580245E-1,3.510006905E0,7.776604652E0
1.122834293E2,2.753416002E-1,2.719896078E0,6.239480019E0
1.123835004E2,3.639297783E-1,3.201145411E0,5.930618763E0
1.124835760E2,2.094990492E0,6.028783798E0,9.375980377E0
1.125836397E2,1.613741279E0,6.759037971E0,9.768641472E0
1.126837116E2,1.786128998E0,4.948966026E0,1.528505039E1
1.127837665E2,1.249811411E0,1.999219418E0,6.114977837E0
1.128838322E2,1.403045058E0,3.337619066E0,4.843617916E0
1.129839020E2,7.087053657E-1,5.961744308E0,7.206767082E0
1.130839658E2,2.442160249E-1,6.687209606E0,1.054438591E1
1.131840401E2,3.663240373E-1,5.267404556E0,1.288119888E1
1.132841013E2,2.083019018E-1,2.753416061E0,7.589851379E0
1.133848473E2,6.703969240E-1,2.614548206E0,5.549929142E0
1.134849162E2,7.110996246E-1,4.788549423E0,7.283383846E0
1.135849847E2,1.120520592E0,6.186806202E0,1.160026169E1
1.136850515E2,8.978530765E-1,4.599401951E0,1.297457504E1
1.137851162E2,8.379961550E-2,2.466103077E0,1.145421028E1
1.138851857E2,4.620950520E-1,2.145270348E0,4.728692532E0
1.139852538E2,7.158881426E-1,3.897879362E0,5.763019562E0
1.140853146E2,5.842030644E-1,6.799740314E0,1.190912247E1
1.141853839E2,5.626545548E-1,6.225114346E0,1.595784187E1
1.142854606E2,2.777358890E-1,2.796513081E0,8.353624344E0
1.143855236E2,-1.077423692E-1,2.073441982E0,6.220325947E0
1.144855817E2,2.921015322E-1,3.395081758E0,6.277788639E0
1.145856503E2,1.297696948E0,5.475706577E0,1.007271385E1
1.146857212E2,1.072635174E0,5.624151707E0,1.098732662E1
1.147857844E2,-1.556278616E-1,3.071854591E0,1.175828362E1
1.148858541E2,1.326428294E0,2.303292274E0,6.409473896E0
1.149859191E2,1.079817891E0,3.658451796E0,5.221913338E0
1.150859902E2,8.379961550E-2,5.959350109E0,8.873182297E0
1.151860536E2,-2.633702382E-2,6.756643295E0,1.072395706E1
1.152861253E2,6.320885420E-1,4.101392746E0,1.235685253E1
1.153861886E2,-8.379961550E-2,2.434977531E0,5.935407162E0
1.154862537E2,3.016786277E-1,2.391880512E0,5.499649048E0
1.155863197E2,-2.681587934E-1,3.828445435E0,7.020013809E0
1.156863940E2,8.356019258E-1,6.016812801E0,1.239037228E1
1.157864635E2,9.313728809E-1,4.936994553E0,1.371919441E1
1.158865283E2,3.854782581E-1,2.729473352E0,7.992089272E0
1.159865902E2,6.943396926E-1,2.530748367E0,4.297723293E0
1.160866572E2,-1.436564885E-2,4.247443676E0,4.817280769E0
1.161867247E2,-2.542719841E0,5.968926907E0,1.332653332E1
1.162867958E2,-4.525179267E-1,7.869981289E0,1.379102325E1
1.163868610E2,-5.267404765E-2,3.059883118E0,8.514040947E0
1.164869253E2,1.771763414E-1,2.063864946E0,5.066285610E0
1.165869890E2,2.873129845E-1,2.509200096E0,4.568276405E0
1.166870642E2,8.379961550E-2,4.719115734E0,1.107831001E1
1.167871295E2,2.257801056E0,6.198777676E0,1.183011150E1
1.168871941E2,5.530774593E-1,3.996044636E0,1.107112694E1
1.169872624E2,8.092648983E-1,2.430188894E0,7.110996246E0
1.170873284E2,-2.681587934E-1,3.134105682E0,5.968926907E0
1.171874042E2,-1.460507631E0,5.444581032E0,8.274613380E0
1.172874667E2,-4.812492430E-1,6.215537548E0,1.113098335E1
1.173875298E2,-1.252205729E0,3.668029070E0,1.309428883E1
1.174876011E2,-7.685621977E-1,2.806090117E0,7.484503269E0
1.175876644E2,-2.178790122E-1,3.354378939E0,6.146103382E0
1.176877411E2,-1.103760719E0,4.053507328E0,7.134938717E0
1.177877978E2,-5.315290093E-1,5.722316742E0,1.100169277E1
1.178878704E2,-8.691217303E-1,5.265010357E0,1.192827702E1
1.179879341E2,-5.626545548E-1,3.423812866E0,9.529213905E0
1.180879993E2,-3.926610649E-1,3.141288519E0,5.109382629E0
1.181880790E2,2.250618339E-1,5.049525738E0,6.651295185E0
1.182881457E2,5.528380394E0,5.578660488E0,1.931940269E1
1.183882014E2,-2.183578730E0,4.867560863E0,1.126985168E1
1.184882678E2,-3.112557158E-2,3.677606106E0,1.177743816E1
1.185883422E2,6.153286099E-1,3.890696526E0,4.154066563E0
1.186884053E2,-5.482889414E-1,4.216318130E0,7.759844780E0
1.187884711E2,2.609759569E-1,5.178816319E0,1.190194035E1
1.188885366E2,-2.394274808E-3,4.553910732E0,1.388439941E1
1.189886049E2,-5.794144869E-1,3.270579338E0,8.868393898E0
1.190886722E2,-2.322446555E-1,2.727078915E0,6.158074856E0
1.191887385E2,-1.041509509E0,3.842811108E0,6.146103382E0
1.192888188E2,-4.884320498E-1,5.746259689E0,1.020679379E1
1.193888815E2,-6.536370516E-1,5.485283375E0,1.247656631E1
1.194889383E2,-1.218685865E0,3.340013266E0,9.715967178E0
1.195890085E2,-5.339232683E-1,3.131711483E0,6.785374641E0
1.196890774E2,-3.926610649E-1,3.572257996E0,5.736682415E0
1.197891411E2,2.059076279E-1,5.245856285E0,9.356825829E0
1.198892098E2,4.405465722E-1,5.602602959E0,1.190433407E1
1.199892751E2,1.053480864E0,4.094210148E0,1.077184200E1
1.200893427E2,6.584255695E-1,3.009603500E0,7.067899227E0
1.201894147E2,3.711125851E-1,3.536343813E0,4.972908974E0
1.202894872E2,-2.466102988E-1,5.901887417E0,8.533195496E0
1.203895503E2,2.178790122E-1,6.591438770E0,1.115253162E1
1.204896221E2,-5.363175869E-1,5.178816319E0,1.113816643E1
1.205915367E2,-6.680026650E-1,3.351984739E0,8.753468513E0
1.206916046E2,4.070267081E-1,3.016786337E0,4.886714935E0
1.207916774E2,-6.464541703E-2,4.264203548E0,9.263449669E0
1.208917389E2,-8.691217303E-1,4.999245644E0,1.008947372E1
1.209918075E2,1.199531674E0,5.626545906E0,1.180616951E1
1.210918806E2,9.960182905E-1,3.612960577E0,1.106154919E1
1.211919414E2,7.518022656E-1,2.928198099E0,5.238673210E0
1.212920074E2,3.016786277E-1,4.182797909E0,4.410254002E0
1.213920788E2,-1.115732074E0,6.186806202E0,9.641744614E0
1.214921409E2,-5.243461728E-1,6.241874218E0,1.072635078E1
1.215922103E2,8.379961550E-2,4.790944099E0,1.105197239E1
1.216922763E2,3.806896806E-1,3.538738251E0,6.217931747E0
1.217923433E2,1.065452337E0,4.656864643E0,6.905088425E0
1.218924109E2,-5.411061049E-1,4.455745220E0,7.113390446E0
1.219924865E2,1.620923996E0,4.709538460E0,1.102802944E1
1.220925448E2,4.549122229E-2,5.727105141E0,1.164814663E1
1.221926121E2,-8.643332124E-1,3.500429869E0,1.003680038E1
1.222926833E2,1.106154919E0,2.633702278E0,5.286558628E0
1.223927457E2,1.221080184E0,4.446168423E0,6.174834728E0
1.224928190E2,-6.464542150E-1,6.773403645E0,1.102563572E1
1.225928774E2,8.379961550E-2,6.952973843E0,1.163856983E1
1.226929547E2,1.249811411E0,3.979284763E0,9.854835510E0
1.227930140E2,-2.777358890E-1,2.391880512E0,6.601015568E0
1.228930815E2,3.543526828E-1,3.114951611E0,5.741470814E0
1.229931548E2,1.103760719E0,5.377541065E0,9.684841156E0
1.230932217E2,2.037527800E0,6.332856655E0,1.049650097E1
1.231932918E2,9.026415944E-1,4.510813713E0,1.227305222E1
1.232933547E2,4.285751879E-1,2.959323645E0,8.466156006E0
1.233934171E2,1.168406129E0,3.332830429E0,4.252232075E0
1.234934934E2,-5.985686928E-2,5.667248249E0,8.054340363E0
1.235935663E2,3.591412306E-2,6.816500187E0,1.062339687E1
1.236936182E2,-7.302538157E-1,7.012830734E0,1.098493290E1
1.237936854E2,3.040728867E-1,4.079844475E0,7.484503269E0
1.238937542E2,9.672870040E-1,3.335224867E0,6.771008968E0
1.239938209E2,5.075862408E-1,3.785348415E0,5.751048088E0
1.240938898E2,8.379961550E-2,6.088640690E0,1.201925945E1
1.241939551E2,1.472478986E0,7.163670063E0,1.128900528E1
1.242940220E2,-9.577099234E-3,4.156461239E0,1.280697632E1
1.243940903E2,3.351984620E-1,2.135693073E0,6.572284222E0
1.244941528E2,2.657645047E-1,4.362368584E0,3.057488918E0
1.245942205E2,-1.268965602E-1,5.997658253E0,8.712765694E0
1.246942924E2,-2.585816681E-1,6.974522591E0,9.718361855E0
1.247943559E2,8.379961550E-2,5.238673210E0,1.195700836E1
1.248944265E2,-4.046324492E-1,3.852388144E0,6.706363678E0
1.249944991E2,1.005595401E-1,3.414235830E0,7.381549358E0
1.250945581E2,-6.656084061E-1,4.348002911E0,7.063110828E0
1.251946360E2,8.260248303E-1,6.256239891E0,1.044861507E1
1.252947089E2,9.361614585E-1,5.825270653E0,1.373356056E1
1.253947652E2,5.650488734E-1,3.174808502E0,9.335277557E0
1.254948279E2,8.643332124E-1,2.724684715E0,5.377541065E0
1.255948981E2,-1.029538140E-1,5.109382629E0,5.212336063E0
1.256949608E2,-1.750214934E0,7.307326794E0,1.235445786E1
1.257950354E2,5.865973234E-1,5.863578796E0,1.161223316E1
1.258950953E2,-1.134886265E0,3.220299721E0,9.050358772E0
1.259951685E2,-6.727912426E-1,2.786935806E0,6.684815407E0
1.260952468E2,-2.633702382E-2,3.624932051E0,5.554717541E0
1.261952998E2,-2.825244367E-1,5.035160065E0,9.069513321E0
1.262953794E2,1.333611012E0,6.301731110E0,1.037199879E1
1.263954328E2,1.628106833E-1,4.225894928E0,1.293626690E1
1.264955008E2,2.633702382E-2,2.643279314E0,7.503657341E0
1.265955622E2,8.379961550E-2,3.253819466E0,4.781366825E0
1.266956311E2,-1.005595401E-1,5.212336063E0,7.534782887E0
1.267957099E2,1.771763414E-1,6.526793003E0,1.205517387E1
1.268957725E2,8.164477348E-1,6.759037971E0,1.217488766E1
1.269958342E2,7.422251701E-1,3.897879362E0,7.527599812E0
1.270959072E2,3.687183261E-1,2.655250788E0,6.340039730E0
1.271959765E2,5.267404318E-1,3.565075159E0,5.715134144E0
1.272960387E2,1.460507631E0,6.450176239E0,1.013496494E1
1.273961098E2,2.470891714E0,7.273807049E0,1.071916866E1
1.274961753E2,-3.351984620E-1,4.134912491E0,1.180138016E1
1.275962382E2,2.083019018E0,2.870735407E0,6.672843933E0
1.276963138E2,8.116591573E-1,3.411841631E0,3.936187744E0
1.277966614E2,3.711125851E-1,6.404685020E0,7.470137596E0
1.278967183E2,-5.889915824E-1,7.022408009E0,1.033129597E1
1.279967867E2,1.343188167E0,6.833260536E0,1.256994247E1
1.280968665E2,1.819648892E-1,3.897879362E0,7.606611252E0
1.281969204E2,9.816526771E-1,3.270579338E0,6.459753513E0
1.282969876E2,1.800494671E0,4.824463844E0,5.739076614E0
1.283970622E2,1.561067224E0,6.543552876E0,1.069043732E1
1.284971187E2,1.328822494E0,6.672843933E0,1.186123753E1
1.285971872E2,1.098972082E0,4.604190350E0,8.310527802E0
1.286972633E2,1.498816013E0,3.442967176E0,6.660872459E0
1.287973232E2,1.003201127E0,4.053507328E0,5.628940105E0
1.288973901E2,1.484450340E0,6.150891781E0,7.609005451E0
1.289974571E2,1.364736706E-1,7.170853138E0,1.034087276E1
1.290975255E2,9.744698405E-1,4.970514297E0,1.385327435E1
1.291975992E2,6.847625971E-1,3.423812866E0,5.509226322E0
1.292976594E2,6.775797606E-1,3.213116884E0,5.743865490E0
1.293977275E2,1.259388566E0,4.314483166E0,6.979310989E0
1.294977917E2,2.205127001E0,6.201171875E0,9.672870636E0
1.295978593E2,2.233858347E0,6.081458092E0,1.068085957E1
1.296979329E2,2.985660791E0,3.766194344E0,1.396819878E1
1.297979937E2,9.888355136E-1,2.241041183E0,6.138920784E0
1.298980620E2,1.637683988E0,3.524372578E0,5.147690773E0
1.299981283E2,-6.703969836E-2,5.868367672E0,7.826884270E0
1.300981968E2,7.039167881E-1,7.118178844E0,1.087240219E1
1.301982643E2,1.824437380E0,4.944177628E0,1.006792545E1
1.302983301E2,6.703969836E-2,2.640885115E0,9.004867554E0
1.303983963E2,5.506832004E-1,2.789330244E0,6.047938347E0
1.304984613E2,1.175588965E0,4.015198708E0,6.447782040E0
1.305985357E2,1.513181686E0,5.375146866E0,1.074550533E1
1.306985985E2,1.814860344E0,5.777385235E0,1.302006626E1
1.307986647E2,2.011190891E0,3.457332850E0,1.047016335E1
1.308987328E2,9.816526622E-2,2.221887112E0,6.196382999E0
1.309987994E2,1.118126392E0,4.189980984E0,4.635315895E0
1.310988673E2,-1.939362586E-1,5.727105141E0,1.081015110E1
1.311989379E2,1.604164094E-1,5.798933506E0,1.215094471E1
1.312990014E2,1.448536277E0,3.569863796E0,9.902720451E0
1.313990677E2,8.643332124E-1,2.494834423E0,7.146910191E0
1.314991319E2,1.046298146E0,2.875524044E0,5.854001999E0
1.315992002E2,1.245022893E0,4.723904133E0,9.371191978E0
1.316992730E2,1.989642382E0,5.549929142E0,1.135125732E1
1.317993413E2,2.537931204E-1,4.065478802E0,1.323555088E1
1.318994072E2,1.189954638E0,2.269772530E0,8.217150688E0
1.319994721E2,9.720755816E-1,2.784541607E0,4.338426113E0
1.320995493E2,3.974496126E-1,5.181210518E0,7.886741161E0
1.321996050E2,-6.344828010E-1,5.933012962E0,1.104239559E1
1.322996730E2,-3.591412306E-2,5.851607800E0,1.331216812E1
1.323997498E2,1.075029373E0,3.952947617E0,7.714353561E0
1.324998057E2,9.888355136E-1,3.150865555E0,6.129343510E0
1.325998840E2,6.129343510E-1,4.036747456E0,6.488484859E0
1.326999413E2,1.735849261E0,5.942590237E0,1.126266861E1
1.328000127E2,1.170800328E0,6.057515144E0,1.114295483E1
1.329000843E2,1.134886265E0,4.331243038E0,1.036002731E1
1.330001423E2,1.120520592E0,2.549902678E0,7.858009815E0
1.331002238E2,1.438959122E0,3.581835032E0,4.534756660E0
1.332002793E2,-2.274561077E-1,5.664854050E0,7.980117798E0
1.333003443E2,6.249057055E-1,6.895511627E0,1.021397591E1
1.334004122E2,8.571503758E-1,5.219519138E0,1.278063869E1
1.335004769E2,1.149251938E0,3.754222870E0,7.869981289E0
1.336005465E2,1.453324795E0,3.634509087E0,5.557111740E0
1.337006213E2,9.265843630E-1,4.862771988E0,6.093429565E0
1.338006800E2,1.632895470E0,6.095823765E0,9.703995705E0
1.339007452E2,7.709565163E-1,6.852414608E0,1.069043732E1
1.340008123E2,1.491633177E0,3.917033672E0,1.158829021E1
1.341008890E2,5.961744189E-1,3.225088120E0,6.510033131E0
1.342009571E2,6.249057055E-1,4.927417755E0,4.592218876E0
1.343010235E2,-8.810931444E-1,6.404685020E0,8.109408379E0
1.344010847E2,-1.338399649E0,6.615381241E0,1.135604572E1
1.345011648E2,1.525153041E0,5.042342663E0,1.069761944E1
1.346012229E2,7.805336118E-1,3.146077156E0,5.645699978E0
1.347012891E2,1.118126392E0,3.356773376E0,4.585036278E0
1.348013640E2,5.435003638E-1,5.059102535E0,8.854028702E0
1.349014173E2,1.345582485E0,6.589044094E0,1.268965626E1
1.350014916E2,1.563461423E0,5.109382629E0,1.317329979E1
1.351033904E2,1.735849261E0,2.547508478E0,9.313729286E0
1.352034635E2,1.000806928E0,2.332023621E0,4.098998547E0
1.353035209E2,8.140534163E-1,4.630527496E0,5.779779434E0
1.354035919E2,-1.359948039E0,6.103006363E0,1.045340347E1
1.355036549E2,-9.313728809E-1,6.699181080E0,1.132731438E1
1.356037236E2,1.022355318E0,5.135719299E0,9.007262230E0
1.357037923E2,-9.816526622E-2,3.256213665E0,7.855615616E0
1.358038554E2,1.206714511E0,3.359167576E0,5.588237286E0
1.359039211E2,-8.691217303E-1,4.980091572E0,1.020200539E1
1.360039932E2,1.843591571E0,6.150891781E0,8.652909279E0
1.361040629E2,-6.368771195E-1,3.785348415E0,1.067367744E1
1.362041235E2,9.146129489E-1,2.626519442E0,8.961771011E0
1.363041945E2,1.007989645E0,3.993650436E0,3.450150013E0
1.364042608E2,3.232271075E-1,5.473312378E0,7.573091030E0
1.365043274E2,1.053480953E-1,6.328068256E0,1.166011810E1
1.366043906E2,6.632141471E-1,6.203566074E0,1.257952023E1
1.367044635E2,-5.794144869E-1,3.442967176E0,7.668862343E0
1.368045298E2,-2.154847234E-2,2.724684715E0,6.035966873E0
1.369045974E2,1.245022863E-1,3.658451796E0,5.765413761E0
1.370046664E2,9.744698405E-1,5.949772835E0,1.091310501E1
1.371047264E2,7.829278708E-1,5.782173634E0,1.336244774E1
1.372047950E2,1.137280583E0,3.665634632E0,1.037439251E1
1.373048637E2,4.980091453E-1,2.545114040E0,4.965725899E0
1.374049319E2,1.015172482E0,4.503631115E0,5.164450645E0
1.375049912E2,-5.746259689E-1,6.701575279E0,1.001525116E1
1.376050670E2,-2.609759569E-1,6.826077461E0,1.352765274E1
1.377051291E2,1.558672905E0,4.783761024E0,8.717555046E0
1.378051973E2,-4.549122155E-1,3.057488918E0,6.871568680E0
1.379052668E2,1.580221355E-1,3.050306082E0,5.933012962E0
1.380053371E2,5.961744189E-1,5.174027920E0,8.071100235E0
1.381053997E2,1.972882390E0,6.646506786E0,1.016848469E1
1.382054683E2,7.039167881E-1,4.640104771E0,1.328343678E1
1.383055341E2,1.843591571E0,2.875524044E0,7.726325035E0
1.384056010E2,2.557085514E0,3.763799906E0,3.337619066E0
1.385056632E2,7.709565163E-1,5.765413761E0,8.212362289E0
1.386057320E2,6.464541703E-2,6.718335152E0,1.031214142E1
1.387058018E2,2.731867552E0,6.131737709E0,1.415974140E1
1.388058675E2,1.103760719E0,3.596200705E0,6.193988800E0
1.389059377E2,6.751855016E-1,3.569863796E0,3.974496126E0
1.390060020E2,6.536370516E-1,5.217124939E0,7.110996246E0
1.391060757E2,3.962524891E0,7.242681503E0,8.765439987E0
1.392061370E2,2.964112282E0,6.512427330E0,1.196897984E1
1.393062117E2,1.721483588E0,4.156461239E0,8.059128761E0
1.394062719E2,1.091789365E0,3.881119490E0,3.651269197E0
1.395063330E2,1.747820616E0,5.964138508E0,6.402290821E0
1.396064108E2,-3.088614643E-1,7.544359684E0,9.045570374E0
1.397064834E2,4.692778587E-1,7.364789486E0,1.389397717E1
1.398065474E2,2.059076309E0,4.355185986E0,7.125361919E0
1.399066130E2,6.392713785E-1,2.995237827E0,5.379935265E0
1.400066742E2,8.858816624E-1,4.352791786E0,5.956955910E0
1.401067426E2,1.829225898E0,6.593832970E0,1.043664360E1
1.402068153E2,2.284138203E0,7.122967720E0,1.010862827E1
1.403068760E2,1.005595446E0,4.472505569E0,1.135843945E1
1.404069523E2,1.036720991E0,2.892283916E0,6.392713547E0
1.405070095E2,1.379102230E0,4.676018715E0,4.683201313E0
1.406070790E2,1.664021015E0,6.962551117E0,8.487704277E0
1.407071519E2,3.974496126E-1,7.034379482E0,1.066409969E1
1.408072188E2,2.794118643E0,5.578660488E0,1.084845924E1
1.409072837E2,6.751855016E-1,3.114951611E0,5.777385235E0
1.410073446E2,8.906702399E-1,3.402264595E0,5.808510780E0
1.411074199E2,6.991282701E-1,5.379935265E0,7.795758724E0
1.412074784E2,2.525959969E0,7.048745155E0,1.076465988E1
1.413075493E2,1.374313712E0,5.885127544E0,1.256036568E1
1.414076176E2,9.888355136E-1,2.971295118E0,9.572310448E0
1.415076888E2,1.187560320E0,2.633702278E0,3.912245035E0
1.416077459E2,2.554691315E0,6.002447128E0,4.118152618E0
1.417078285E2,-6.703969836E-2,6.902694225E0,1.075987053E1
1.418078872E2,5.339232683E-1,6.905088425E0,1.275909042E1
1.419079569E2,1.333611012E0,4.529967785E0,8.356019020E0
1.420080158E2,4.333637357E-1,2.944957972E0,6.055120945E0
1.421080871E2,2.083019018E-1,3.442967176E0,5.348809719E0
1.422081559E2,9.888355136E-1,6.340039730E0,1.096098995E1
1.423084717E2,2.382303476E0,6.885934353E0,1.375510883E1
1.424085380E2,1.965699673E0,3.840416908E0,9.950606346E0
1.425085999E2,5.387118459E-1,2.291321039E0,5.399089813E0
1.426086771E2,1.350371003E0,4.781366825E0,5.296135902E0
1.427087528E2,9.744698405E-1,6.131737709E0,8.765439987E0
1.428088060E2,1.628106833E-1,6.459753513E0,1.026186180E1
1.429088728E2,1.458113313E0,5.248250484E0,1.179659176E1
1.430089469E2,2.729473412E-1,3.124528646E0,6.342433929E0
1.431090089E2,4.644893110E-1,2.913832426E0,5.810904980E0
1.432090752E2,7.637736797E-1,4.371945858E0,8.221940041E0
1.433091410E2,2.257801056E0,6.435810566E0,1.013257122E1
1.434092174E2,1.079817891E0,5.432609558E0,1.486844635E1
1.435092758E2,2.322446585E0,2.751021862E0,8.296162605E0
1.436093415E2,1.441353440E0,2.633702278E0,4.053507328E0
1.437094140E2,1.508393168E0,5.355992794E0,6.577073097E0
1.438094779E2,-6.656084061E-1,6.385530949E0,1.059227180E1
1.439095452E2,8.379961550E-2,7.024802208E0,1.250050831E1
1.440096207E2,1.477267504E0,4.245049000E0,7.814912796E0
1.441096792E2,4.357580245E-1,2.784541607E0,5.648094177E0
1.442097492E2,6.129343510E-1,3.756617069E0,4.807703972E0
1.443098130E2,6.823683381E-1,5.717528343E0,1.125069714E1
1.444098829E2,2.487651587E0,7.154093266E0,1.179659176E1
1.445099475E2,1.692752242E0,4.201952457E0,1.273993587E1
1.446100120E2,2.257801056E0,2.640885115E0,5.557111740E0
1.447100833E2,1.424593568E0,3.610566378E0,3.560286522E0
1.448101561E2,9.074301720E-1,5.631334305E0,7.869981289E0
1.449102165E2,9.433442950E-1,7.120573044E0,1.092028713E1
1.450102855E2,1.594586968E0,5.889915943E0,1.321160793E1
1.451103496E2,-1.652049571E-1,3.256213665E0,6.002447128E0
1.452104176E2,-1.173194647E-1,2.691164970E0,5.968926907E0
1.453104852E2,1.616135478E0,4.261809349E0,6.775797844E0
1.454105505E2,2.552296877E0,6.023995399E0,9.873989105E0
1.455106131E2,7.733507752E-1,5.130930901E0,1.431058025E1
1.456106831E2,1.877111435E0,3.284945011E0,1.043903828E1
1.457107617E2,1.611346960E0,2.748627424E0,4.189980984E0
1.458108224E2,1.577827096E0,5.162056446E0,6.395108223E0
1.459108876E2,2.322446555E-1,6.526793003E0,9.665687561E0
1.460109538E2,-2.154847383E-1,7.003253937E0,1.159307861E1
1.461110208E2,1.537124395E0,4.644893169E0,8.454184532E0
1.462110903E2,4.788549617E-3,2.971295118E0,6.397502422E0
1.463111548E2,4.908263385E-1,3.725491524E0,5.190787792E0
1.464112364E2,1.087000728E0,5.449369431E0,1.100169277E1
1.465112875E2,2.140481710E0,6.442993641E0,1.068325424E1
1.466113552E2,4.549122155E-1,4.321666241E0,1.075029373E1
1.467114240E2,7.925049663E-1,2.803695917E0,7.470137596E0
1.468115071E2,3.830839694E-1,3.668029070E0,4.699961662E0
1.469115635E2,1.515576005E0,6.459753513E0,8.006455421E0
1.470116259E2,9.098244309E-1,6.838048935E0,9.828497887E0
1.471117038E2,8.810931444E-1,5.672037125E0,1.237121773E1
1.472117660E2,8.379961550E-2,3.579440832E0,7.075081825E0
1.473118343E2,1.077423692E-1,2.815667152E0,6.153286457E0
1.474118932E2,1.429382086E0,4.137306690E0,6.423839092E0
1.475119580E2,2.243435383E0,5.770202160E0,1.022355366E1
1.476120293E2,1.968093872E0,5.710345268E0,1.281415844E1
1.477121148E2,1.467690468E0,3.464515686E0,1.097774982E1
1.478121660E2,1.699935079E0,2.561874151E0,4.510813713E0
1.479122397E2,1.264177084E0,4.726298332E0,5.820482254E0
1.480122993E2,5.913859010E-1,6.514821529E0,1.049650097E1
1.481123640E2,6.009629965E-1,6.402290821E0,1.115492630E1
1.482124412E2,1.472478986E0,3.952947617E0,1.049650097E1
1.483125089E2,2.537931204E-1,2.681587696E0,7.611399651E0
1.484125725E2,4.501236677E-1,2.825244188E0,5.109382629E0
1.485126303E2,1.436564922E0,5.097411156E0,8.109408379E0
1.486127021E2,3.275367975E0,6.512427330E0,1.068085957E1
1.487127848E2,1.072635174E0,4.271386147E0,1.351568127E1
1.488128332E2,1.896265626E0,2.648067951E0,7.388731956E0
1.489129024E2,1.110943556E0,2.633702278E0,3.371139050E0
1.490129789E2,1.237840056E0,4.386311531E0,6.859597206E0
1.491130384E2,-1.352765322E0,6.629746914E0,1.268486786E1
1.492131090E2,1.225868702E0,6.591438770E0,1.246459484E1
1.493131703E2,6.344828010E-1,3.873936653E0,7.661679268E0
1.494132418E2,6.560313106E-1,2.930592299E0,7.211555958E0
1.495133067E2,6.823683381E-1,3.363956213E0,5.844424725E0
1.496134381E2,2.542719841E0,5.763019562E0,1.047016335E1
1.497135066E2,1.819648862E0,6.778192043E0,1.030735302E1
1.498135747E2,1.798100352E0,4.268991947E0,1.257473087E1
1.499136431E2,1.146857619E0,2.660039425E0,5.753442287E0
1.500137107E2,1.541913033E0,4.242654800E0,4.913052082E0
1.501137789E2,1.180377483E0,5.612180233E0,8.633754730E0
1.502138605E2,7.733507752E-1,6.646506786E0,1.002004051E1
1.503139133E2,2.284138203E0,6.184412003E0,1.179180336E1
1.504139844E2,2.442160249E-1,3.665634632E0,6.186806202E0
1.505140445E2,2.513988614E-1,2.609759569E0,6.055120945E0
1.506141117E2,1.053480864E0,3.548315287E0,6.438204765E0
1.507141935E2,3.215511084E0,5.648094177E0,1.003919411E1
1.508142468E2,1.984853864E0,5.985687256E0,1.473676109E1
1.509143174E2,2.162030220E0,3.696760416E0,9.323306084E0
1.510143799E2,1.446141958E0,2.791724443E0,4.324060440E0
1.511144538E2,1.453324795E0,4.769395351E0,5.660065651E0
1.512145167E2,-6.751855016E-1,5.818087578E0,1.145660496E1
1.513145814E2,6.392713785E-1,6.749460697E0,1.166730118E1
1.514146552E2,2.806090117E0,4.783761024E0,8.324893951E0
1.515147105E2,1.268965602E-1,3.014391899E0,5.990475655E0
1.516147824E2,8.092648983E-1,3.210722446E0,5.813299179E0
1.517148495E2,8.356019258E-1,4.917840481E0,9.311334610E0
1.518149221E2,2.432583094E0,6.847625732E0,1.089395046E1
1.519149922E2,9.265843630E-1,3.981678963E0,1.275669575E1
1.520150523E2,1.326428294E0,2.746233225E0,5.779779434E0
1.521151189E2,1.233051538E0,3.591412306E0,4.228289127E0
1.522151946E2,8.547561169E-1,5.403878212E0,7.529994488E0
1.523152525E2,-5.985686779E-1,6.392713547E0,1.107831001E1
1.524153235E2,5.698373914E-1,6.234691620E0,1.383651447E1
1.525153808E2,6.201171875E-1,3.854782343E0,7.343240738E0
1.526154597E2,5.267404318E-1,3.011997700E0,6.344828129E0
1.527155269E2,1.031932473E0,3.617749214E0,5.901887417E0
1.528155897E2,1.958516836E0,5.260221958E0,1.144942188E1
1.529156562E2,1.903448462E0,5.628940105E0,1.314456844E1
1.530157263E2,2.590605259E0,3.011997700E0,1.186123753E1
1.531157961E2,7.398309112E-1,2.056682110E0,5.339232922E0
1.532158569E2,9.289786220E-1,3.926610708E0,4.666441441E0
1.533159294E2,5.027977228E-1,5.535563469E0,9.526819229E0
1.534159961E2,-2.346389294E-1,6.387925148E0,1.045100975E1
1.535160537E2,9.098244309E-1,4.673624516E0,1.126745701E1
1.536161237E2,9.816526622E-2,2.870735407E0,6.440599442E0
1.537161944E2,3.160442710E-1,2.269772530E0,5.626545906E0
1.538162610E2,1.077423692E-1,4.019987583E0,8.636149406E0
1.539163332E2,2.267378330E0,5.942590237E0,9.486116409E0
1.540163994E2,2.585816681E-1,4.371945858E0,1.536406136E1
1.541164636E2,1.403045058E0,2.332023621E0,9.160495758E0
1.542165274E2,-3.950553536E-1,2.245829821E0,5.334444046E0
1.543166077E2,1.695146561E0,5.257827282E0,6.885934353E0
1.544166686E2,-1.604164094E-1,5.729499817E0,1.062818623E1
1.545167260E2,-3.280156553E-1,5.971321583E0,1.208869362E1
1.546167995E2,-3.064671755E-1,3.521978140E0,8.818114281E0
1.547168674E2,9.816526622E-2,3.385504484E0,5.430215359E0
1.548169352E2,3.663240373E-1,3.612960577E0,5.509226322E0
1.549170007E2,1.149251938E0,5.303318501E0,9.265843391E0
1.550170679E2,1.158828974E0,6.454965115E0,1.329061985E1
1.551171390E2,1.130097747E0,3.921822071E0,1.050368404E1
1.552172008E2,6.943397224E-2,3.129317284E0,7.573091030E0
1.553172668E2,-2.537931204E-1,4.216318130E0,5.547534943E0
1.554173419E2,-5.315290093E-1,5.427821159E0,7.558725357E0
1.555174014E2,-9.170072675E-1,5.968926907E0,9.816526413E0
1.556174653E2,-8.499675393E-1,5.712739468E0,1.280937004E1
1.557175434E2,-8.451790214E-1,3.505218267E0,6.979310989E0
1.558176027E2,-2.298503816E-1,2.889889717E0,6.196382999E0
1.559176728E2,-3.830839694E-2,4.127729893E0,6.131737709E0
1.560177352E2,4.261809289E-1,6.213143349E0,9.598648071E0
1.561178150E2,-7.518022656E-1,5.741470814E0,1.484689808E1
1.562178766E2,-2.394274808E-3,3.493247032E0,1.061382008E1
1.563179377E2,1.007989645E0,2.899466753E0,4.831646442E0
1.564180070E2,6.799740195E-1,4.563488007E0,5.193181992E0
1.565180704E2,-1.960911036E0,5.856396198E0,1.002482891E1
1.566181474E2,-1.829225898E0,6.572284222E0,1.133928585E1
1.567182111E2,-5.315290093E-1,3.909850836E0,1.104000092E1
1.568185688E2,-2.226675600E-1,3.205934048E0,5.521197796E0
1.569186361E2,-5.650488734E-1,3.253819466E0,6.009629726E0
1.570186939E2,2.825244367E-1,5.533169270E0,8.700794220E0
1.571187605E2,6.153286099E-1,6.395108223E0,9.768641472E0
1.572188396E2,1.221080124E-1,4.503631115E0,1.204559612E1
1.573188966E2,1.867534369E-1,2.861158371E0,8.367990494E0
1.574189617E2,3.998439014E-1,3.878725290E0,4.659258842E0
1.575190275E2,-5.770202279E-1,5.430215359E0,7.834067345E0
1.576190950E2,-7.278595567E-1,6.035966873E0,1.042946148E1
1.577191634E2,-6.680026650E-1,5.360781193E0,1.285725594E1
1.578192307E2,-5.195576549E-1,3.826051235E0,7.374366283E0
1.579193057E2,1.316851079E-1,3.035940409E0,4.065478802E0
1.580193653E2,-1.010383964E0,3.641691923E0,8.298556328E0
1.581194377E2,1.005595446E0,5.257827282E0,1.041030693E1
1.582194991E2,1.589798450E0,5.798933506E0,1.151646137E1
1.583195689E2,1.556278616E-1,3.603383541E0,1.043185520E1
1.584196399E2,1.443747759E0,2.918621063E0,5.583448887E0
1.585196947E2,1.484450340E0,4.247443676E0,5.892310143E0
1.586197659E2,-4.788549542E-1,5.030371189E0,9.414288521E0
1.587198344E2,-1.431776285E0,6.421444893E0,1.086521912E1
1.588199011E2,3.591412306E-1,4.944177628E0,1.205277920E1
1.589199806E2,6.703969836E-2,3.289733648E0,6.318490982E0
1.590200441E2,7.182824612E-2,2.542719841E0,5.542746067E0
1.591201036E2,6.129343510E-1,4.259414673E0,7.853221416E0
1.592201738E2,1.185166001E0,6.122160912E0,1.044622135E1
1.593202455E2,-3.878725171E-1,4.137306690E0,1.449972820E1
1.594203107E2,1.034326673E0,2.703136206E0,8.226728439E0
1.595203710E2,8.571503758E-1,3.241847992E0,4.628133297E0
1.596204404E2,1.508393139E-1,5.346415520E0,7.683228016E0
1.597205059E2,-9.170072675E-1,6.316096783E0,1.086282444E1
1.598205736E2,-1.417410731E0,5.976109982E0,1.283331299E1
1.599206437E2,-1.771763414E-1,3.328042030E0,7.166064739E0
1.600207075E2,-5.770202279E-1,2.576239586E0,5.777385235E0
1.601207783E2,1.029538140E-1,3.735068798E0,7.422251701E0
1.602208435E2,2.185972929E0,5.662459850E0,1.019242764E1
1.603209102E2,1.225868702E0,6.229903221E0,1.161941528E1
1.604209766E2,1.312062621E0,3.392687321E0,1.079339123E1
1.605210394E2,1.007989645E0,2.827638626E0,5.418243885E0
1.606211163E2,1.546701550E0,5.008822918E0,6.684815407E0
1.607211783E2,-2.609759569E-1,5.935407162E0,9.519637108E0
1.608212510E2,-6.153286099E-1,5.937801361E0,1.090113354E1
1.609213113E2,-4.285751879E-1,3.976890564E0,9.720755577E0
1.610213798E2,4.213923812E-1,3.232270956E0,6.021601200E0
1.611214464E2,-1.939362586E-1,3.826051235E0,6.423839092E0
1.612215189E2,2.633702382E-2,5.681613922E0,8.918673515E0
1.613215870E2,8.427847624E-1,5.684008598E0,9.553156853E0
1.614216542E2,-2.370332032E-1,4.077449799E0,1.287880421E1
1.615217177E2,-7.182824612E-2,2.825244188E0,8.571503639E0
1.616217890E2,6.967339516E-1,3.507612705E0,4.431802750E0
1.617218580E2,7.470137477E-1,5.006428719E0,6.850020409E0
1.618219189E2,-5.075862408E-1,6.165257454E0,1.073353386E1
1.619219861E2,-1.158828974E0,5.877944469E0,1.300091267E1
1.620220518E2,-1.149251908E-1,3.562680960E0,7.994483471E0
1.621221201E2,1.125309169E-1,3.038334846E0,5.401484013E0
1.622221833E2,7.182824425E-3,3.864359617E0,6.378347874E0
1.623222603E2,7.326480746E-1,5.360781193E0,1.096817303E1
1.624223209E2,8.260248303E-1,5.628940105E0,1.089873886E1
1.625223836E2,7.901106775E-2,3.979284763E0,1.098014450E1
1.626224671E2,8.379961550E-2,3.040729046E0,7.374366283E0
1.627225240E2,6.129343510E-1,4.132518291E0,5.717528343E0
1.628225944E2,-5.171633363E-1,5.399089813E0,8.901913643E0
1.629226597E2,-1.084606528E0,5.940196037E0,1.010144520E1
1.630227208E2,1.316851079E-1,5.597814560E0,1.302724934E1
1.631227872E2,-1.149251908E-1,3.567469358E0,6.167652130E0
1.632228582E2,4.956148863E-1,3.114951611E0,6.275394440E0
1.633229265E2,-3.759011328E-1,3.861965179E0,7.668862343E0
1.634229883E2,1.577827096E0,5.585843086E0,1.027383327E1
1.635230633E2,5.219519138E-1,5.442186832E0,1.162420464E1
1.636231221E2,8.379961848E-1,3.258608103E0,1.019003391E1
1.637231930E2,1.446141958E0,2.734261751E0,4.699961662E0
1.638232574E2,9.553156495E-1,4.635315895E0,6.016812801E0
1.639233240E2,-1.144463301E0,6.402290821E0,1.002243423E1
1.640233923E2,1.173194647E-1,6.771008968E0,1.184926605E1
1.641250582E2,2.418217510E-1,4.723904133E0,9.237112045E0
1.642251282E2,-2.873129770E-2,3.284945011E0,6.665660858E0
1.643251929E2,-4.644893110E-1,3.294522047E0,5.552323341E0
1.644252593E2,-3.519583941E-1,5.004034519E0,7.963357925E0
1.645253198E2,1.424593568E0,6.347222328E0,1.043185520E1
1.646253941E2,-4.788549617E-2,4.498842239E0,1.285725594E1
1.647254604E2,1.939362586E-1,2.513988495E0,9.433443069E0
1.648255285E2,6.656084061E-1,3.270579338E0,5.492466450E0
1.649255966E2,2.298503816E-1,4.846012115E0,6.936213970E0
1.650256668E2,-8.643332124E-1,6.136526108E0,9.562733650E0
1.651257290E2,-8.140534163E-1,5.358386993E0,1.359229851E1
1.652257971E2,-4.740664065E-1,3.557892323E0,7.716747761E0
1.653258657E2,7.901106775E-2,3.196356773E0,5.758230686E0
1.654259323E2,-4.716721475E-1,3.553103924E0,7.161275864E0
1.655259910E2,9.098244309E-1,5.142902374E0,1.121717739E1
1.656260663E2,5.937801600E-1,5.566689014E0,1.110704041E1
1.657261428E2,7.685621977E-1,3.948159218E0,1.060184860E1
1.658262047E2,2.585816681E-1,2.837215662E0,6.962551117E0
1.659262751E2,2.346389294E-1,4.168432236E0,5.164450645E0
1.660263457E2,-8.068706393E-1,5.063891411E0,8.901913643E0
1.661264072E2,-1.211503029E0,6.043149471E0,1.165054131E1
1.662264675E2,5.674431324E-1,5.329655647E0,1.102324104E1
1.663265432E2,-5.027977228E-1,2.602576733E0,6.646506786E0
1.664266125E2,-3.687183261E-1,2.415823221E0,5.348809719E0
1.665266732E2,-1.125309169E-1,4.008016109E0,7.807730198E0
1.666267344E2,9.720755816E-1,5.655277252E0,1.066170597E1
1.667268077E2,2.944957912E-1,4.745452881E0,1.471042442E1
1.668268745E2,6.416656375E-1,2.839609861E0,8.514040947E0
1.669269395E2,1.534730196E0,2.698347807E0,4.458139896E0
1.670270042E2,1.051086664E0,4.640104771E0,6.811711788E0
1.671270715E2,-2.343995094E0,5.545140266E0,1.046537495E1
1.672271417E2,-1.273754239E0,6.124555111E0,1.178940868E1
1.673272140E2,3.759011328E-1,4.403071404E0,9.335277557E0
1.674272753E2,8.379961550E-2,3.105374336E0,7.065505028E0
1.675273403E2,-4.788549617E-3,2.897072554E0,5.375146866E0
1.676274095E2,7.661679387E-1,4.632921696E0,1.068804264E1
1.677274769E2,1.228263021E0,6.225114346E0,1.159307861E1
1.678275421E2,1.125309110E0,4.158855438E0,1.161702156E1
1.679276103E2,6.943396926E-1,2.463708878E0,6.881145954E0
1.680276797E2,1.400650740E0,4.304905891E0,5.087833881E0
1.681277500E2,-6.751855016E-1,5.257827282E0,8.365595818E0
1.682278102E2,-1.362342358E0,5.990475655E0,1.077663136E1
1.683278839E2,7.422251999E-2,4.857983589E0,1.281176472E1
1.684279522E2,-4.932205975E-1,2.944957972E0,5.432609558E0
1.685280139E2,-4.189980924E-1,2.183578730E0,6.052726746E0
1.686280792E2,5.147690773E-1,3.763799906E0,7.824490070E0
1.687281539E2,2.293715239E0,5.298530102E0,1.050847244E1
1.688282133E2,1.161223292E0,4.960937500E0,1.307513428E1
1.689282844E2,1.400650740E0,2.786935806E0,1.041988373E1
1.690283522E2,1.522758722E0,2.078230619E0,4.965725899E0
1.691284200E2,9.289786220E-1,4.154066563E0,5.286558628E0
1.692284851E2,-5.435003638E-1,5.655277252E0,9.909903526E0
1.693285479E2,-4.884320498E-1,6.390319347E0,1.176786041E1
1.694286226E2,5.195576549E-1,4.146883965E0,1.002482891E1
1.695286753E2,-3.160442710E-1,2.537931204E0,7.881952763E0
1.696287538E2,-1.795706153E-1,2.573845387E0,6.529187202E0
1.697288308E2,4.166038036E-1,4.460534096E0,7.707170486E0
1.698288891E2,9.265843630E-1,5.703162670E0,1.113098335E1
1.699289568E2,4.597007632E-1,4.252232075E0,1.333371639E1
1.700290262E2,1.168406129E0,2.863552570E0,9.246688843E0
1.701290851E2,3.375927508E-1,2.918621063E0,5.705556870E0
1.702291522E2,8.523618579E-1,4.975303173E0,6.873962879E0
1.703292212E2,-1.240234375E0,5.482889175E0,9.699207306E0
1.704292918E2,-1.556278586E0,5.533169270E0,1.159068394E1
1.705293532E2,-5.123748183E-1,3.569863796E0,9.347249031E0
1.706294254E2,8.379961550E-2,3.158048391E0,6.438204765E0
1.707294935E2,-6.703969836E-2,3.782954216E0,6.296942711E0
1.708295691E2,4.597007632E-1,4.850800991E0,9.529213905E0
1.709296223E2,1.893871427E0,6.222720146E0,1.256994247E1
1.710296911E2,6.129343510E-1,3.852388144E0,1.070001411E1
1.711297699E2,1.201925993E0,2.980872154E0,7.551542759E0
1.712298229E2,4.166038036E-1,3.833234072E0,5.528380394E0
1.713298940E2,6.680026650E-1,6.162863255E0,6.842837334E0
1.714304313E2,-8.858816624E-1,5.870761871E0,1.005834866E1
1.715304990E2,-1.388679445E-1,5.621757030E0,1.444705391E1
1.716305703E2,-1.771763414E-1,4.067873001E0,6.689603806E0
1.717306329E2,-1.532335877E-1,3.170019865E0,6.019207001E0
1.718307029E2,8.619388938E-2,4.197163582E0,6.411868095E0
1.719307715E2,1.161223292E0,6.299336910E0,9.565128326E0
1.720308403E2,1.075029373E0,5.624151707E0,1.570165443E1
1.721309020E2,2.475680113E0,3.883513689E0,9.282603264E0
1.722309680E2,1.156434774E0,3.107768774E0,3.246636629E0
1.723310366E2,7.230709791E-1,4.807703972E0,4.762212753E0
1.724311038E2,-1.084606528E0,6.756643295E0,9.613013268E0
1.725311635E2,-1.249811411E0,7.441406250E0,1.023791885E1
1.726312357E2,1.005595401E-1,4.570670605E0,1.142308521E1
1.727313121E2,2.753416002E-1,3.385504484E0,5.059102535E0
1.728313771E2,2.298503816E-1,3.289733648E0,6.069486618E0
1.729314393E2,7.158881426E-1,5.413455486E0,9.215563774E0
1.730315133E2,1.793311834E0,6.392713547E0,9.792584419E0
1.731315733E2,3.639297783E-1,4.702355862E0,1.304640388E1
1.732316459E2,1.108549237E0,3.160442829E0,7.383943558E0
1.733317079E2,1.158828974E0,3.912245035E0,3.536343813E0
1.734317804E2,5.339232683E-1,5.549929142E0,7.805335999E0
1.735318336E2,-6.081457734E-1,6.452570438E0,1.063057995E1
1.736319121E2,-4.453351200E-1,6.553130150E0,1.238797760E1
1.737319762E2,5.889915824E-1,4.087027073E0,7.355212212E0
1.738320431E2,6.129343510E-1,3.143682718E0,5.212336063E0
1.739321140E2,-4.788549617E-3,3.811685562E0,6.103006363E0
1.740321821E2,2.873129845E-1,5.482889175E0,1.239276600E1
1.741322507E2,9.050358534E-1,5.988081455E0,1.130097675E1
1.742323157E2,9.577099085E-1,3.952947617E0,1.068085957E1
1.743323794E2,7.087053657E-1,2.813272953E0,6.742278099E0
1.744324448E2,5.435003638E-1,4.146883965E0,5.262616158E0
1.745325112E2,9.098244458E-2,5.657671452E0,8.607418060E0
1.746325800E2,-1.675992310E-1,6.033572674E0,1.052762604E1
1.747326487E2,1.877111435E0,5.394300938E0,1.210784817E1
1.748327179E2,-4.309694469E-2,2.774964571E0,6.265817165E0
1.749327804E2,2.011190802E-1,2.940169573E0,5.607391834E0
1.750328579E2,6.344828010E-1,4.460534096E0,8.605023384E0
1.751329215E2,1.915419817E0,5.978504181E0,9.677659035E0
1.752329894E2,1.455719113E0,4.781366825E0,1.386524582E1
1.753330502E2,6.799740195E-1,3.177202702E0,8.791776657E0
1.754331270E2,1.314456820E0,3.402264595E0,4.637710094E0
1.755331815E2,1.424593568E0,4.795732498E0,7.120573044E0
1.756332494E2,-6.895511150E-1,5.894704342E0,9.735121727E0
1.757333208E2,3.567469418E-1,6.522004604E0,1.304640388E1
1.758333924E2,1.067846537E0,4.041535854E0,8.018425941E0
1.759334570E2,5.027977228E-1,2.942563772E0,5.851607800E0
1.760335241E2,3.423812985E-1,3.433390141E0,6.486090660E0
1.761335899E2,2.042316437E0,5.456552505E0,1.174391747E1
1.762336535E2,1.972882390E0,5.861184597E0,1.125788021E1
1.763337279E2,1.759791970E0,4.029564381E0,1.176546669E1
1.764337875E2,1.216291547E0,2.583422422E0,6.624958515E0
1.765338548E2,8.356019258E-1,3.749434233E0,4.721509933E0
1.766339298E2,7.230709791E-1,5.530774593E0,8.116591454E0
1.767339896E2,4.980091453E-1,6.174834728E0,1.028819847E1
1.768340668E2,3.423812985E-1,5.542746067E0,1.256754875E1
1.769341268E2,5.842030644E-1,3.670423269E0,6.560312748E0
1.770342057E2,8.619388938E-2,2.731867552E0,5.794145107E0
1.771342572E2,8.523618579E-1,3.840416908E0,6.158074856E0
1.772343309E2,2.329629421E0,5.624151707E0,1.081254482E1
1.773344011E2,2.439765930E0,5.877944469E0,1.273275375E1
1.774344661E2,2.293715239E0,3.521978140E0,1.033847904E1
1.775345233E2,1.575432777E0,2.741444588E0,4.901080608E0
1.776345980E2,1.438959122E0,4.276175022E0,5.942590237E0
1.777346659E2,2.921015322E-1,5.554717541E0,8.995290756E0
1.778347337E2,1.048692346E0,6.531581879E0,1.068804264E1
1.779347941E2,1.441353440E0,5.142902374E0,1.117168617E1
1.780348681E2,-1.963305324E-1,3.325647593E0,6.780586243E0
1.781349293E2,-1.436564885E-2,2.717501879E0,6.191594601E0
1.782349968E2,1.618529797E0,4.125335693E0,7.352818012E0
1.783350697E2,3.244242430E0,5.442186832E0,1.024510193E1
1.784351360E2,1.872322917E0,4.834040642E0,1.351807594E1
1.785351907E2,1.917814136E0,3.220299721E0,9.873989105E0
1.786354082E2,1.522758722E0,3.045517445E0,4.254626274E0
1.787354733E2,1.053480864E0,4.632921696E0,6.299336910E0
1.788355397E2,3.830839694E-2,5.691191196E0,9.998491287E0
1.789356118E2,7.015225291E-1,6.902694225E0,1.219883060E1
1.790356723E2,7.134938836E-1,4.529967785E0,8.966559410E0
1.791357415E2,5.602602959E-1,3.332830429E0,6.543552876E0
1.792358057E2,-2.226675600E-1,3.074248791E0,6.136526108E0
1.793358729E2,4.525179267E-1,4.312088966E0,9.129369736E0
1.794359399E2,1.429382086E0,5.604997158E0,1.174152374E1
1.795359998E2,1.043903828E0,4.709538460E0,1.198813438E1
1.796360734E2,4.860377908E-1,2.751021862E0,1.003440571E1
1.797361489E2,7.996878028E-1,3.172414064E0,4.185192585E0
1.798362080E2,8.379961550E-2,4.678412914E0,7.048745155E0
1.799362750E2,-4.453351200E-1,5.059102535E0,1.084367085E1
1.800363468E2,-1.580221355E-1,5.406272411E0,1.227544689E1
1.801364092E2,-3.208328187E-1,3.701548815E0,8.650514603E0
1.802364760E2,-5.530774593E-1,2.561874151E0,6.495667458E0
1.803365550E2,-3.136500120E-1,2.901860952E0,5.925830364E0
1.804366140E2,1.017566800E0,4.802915096E0,1.061860847E1
1.805366724E2,1.723877907E0,5.861184597E0,1.206475067E1
1.806367436E2,1.149251938E0,3.723097324E0,1.161462688E1
1.807368133E2,1.209108829E0,2.406246185E0,7.163670063E0
1.808368786E2,1.230657220E0,3.936187744E0,4.678412914E0
1.809369457E2,1.436564885E-2,5.145296574E0,7.723930359E0
1.810370151E2,-2.609759569E-1,6.119766235E0,1.053959751E1
1.811370838E2,1.067846537E0,5.552323341E0,1.411903858E1
1.812371482E2,-1.101366431E-1,3.462121487E0,6.993676662E0
1.813372338E2,4.764606953E-1,2.739050388E0,5.178816319E0
1.814372822E2,-9.577099234E-3,3.684788942E0,5.851607800E0
1.815373484E2,2.195549965E0,5.616968632E0,1.006792545E1
1.816374206E2,2.044710636E0,6.023995399E0,1.267768478E1
1.817374829E2,2.037527800E0,3.510006905E0,1.116210938E1
1.818375524E2,9.792584181E-1,2.023162127E0,5.638517380E0
1.819376171E2,1.395862222E0,3.905062199E0,5.643305779E0
1.820376844E2,4.549122229E-2,5.514014721E0,8.348835945E0
1.821377523E2,-7.877163887E-1,6.495667458E0,1.065212822E1
1.822378396E2,1.309668303E0,4.987274647E0,1.291711235E1
1.823378967E2,6.249057055E-1,3.608172178E0,5.858790398E0
1.824379621E2,3.447755575E-1,3.205934048E0,4.623344421E0
1.825380151E2,8.140534163E-1,4.869955063E0,7.178035736E0
1.826380977E2,2.528354168E0,6.407079220E0,1.034805584E1
1.827381599E2,1.850774407E0,5.332049847E0,1.263698196E1
1.828382251E2,1.666415215E0,3.634509087E0,8.197997093E0
1.829382932E2,1.235445857E0,3.711125851E0,4.142095566E0
1.830383567E2,8.044763207E-1,5.382329941E0,7.585062504E0
1.831384279E2,-5.291347504E-1,6.682421207E0,1.057551193E1
1.832385004E2,3.687183261E-1,6.854808807E0,1.252205753E1
1.833385573E2,1.412622094E0,4.661653042E0,7.666468143E0
1.834386299E2,9.577099234E-2,3.589017868E0,5.020794392E0
1.835386892E2,-2.015979290E0,2.470891714E0,8.516435623E0
1.836387620E2,1.913025618E0,5.985687256E0,9.531607628E0
1.837388296E2,2.456526041E0,6.703969479E0,9.701601982E0
1.838389046E2,2.066259146E0,4.932206154E0,1.211024189E1
1.839389803E2,1.266571403E0,3.217905283E0,6.938608170E0
1.840390277E2,1.211503029E0,4.314483166E0,4.965725899E0
1.841391008E2,5.435003638E-1,6.325674057E0,8.291373253E0
1.842391641E2,6.225114465E-1,7.228315830E0,1.057790565E1
1.843392371E2,5.267404765E-2,6.873962879E0,9.730332375E0
1.844393026E2,3.375927508E-1,3.914639235E0,7.247469902E0
1.845393544E2,-6.344828010E-1,2.830032825E0,6.610592842E0
1.846394304E2,5.291347504E-1,4.410254002E0,7.005648136E0
1.847395077E2,1.072635174E0,5.904281616E0,1.058987713E1
1.848395677E2,2.066259146E0,6.076669693E0,1.066170597E1
1.849396450E2,7.972934842E-1,4.453351021E0,9.153312683E0
1.850397019E2,9.217957854E-1,3.505218267E0,7.417463303E0
1.851397649E2,6.464541703E-2,4.206740856E0,6.203566074E0
1.852398414E2,6.727912426E-1,5.588237286E0,7.910684109E0
1.853399050E2,-4.309694469E-2,5.880339146E0,9.510059357E0
1.854399663E2,-8.451790214E-1,5.178816319E0,1.183011150E1
1.855400366E2,-2.753416002E-1,3.689577579E0,7.431828976E0
1.856401043E2,-1.340793967E-1,2.983266354E0,6.555524349E0
1.857401751E2,-3.830839694E-1,3.766194344E0,7.719141960E0
1.858404185E2,1.173194647E-1,5.329655647E0,1.064494610E1
1.859404818E2,6.153286099E-1,5.997658253E0,1.108070374E1
1.860405492E2,5.770202279E-1,3.871542454E0,1.005116558E1
1.861406176E2,3.567469418E-1,2.674404860E0,7.731113434E0
1.862406830E2,3.040728867E-1,3.854782343E0,5.813299179E0
1.863407509E2,9.098244458E-2,5.248250484E0,8.401510239E0
1.864408173E2,3.495641351E-1,6.232297421E0,1.049650097E1
1.865408790E2,-9.577099234E-2,4.055901527E0,1.244783497E1
1.866409573E2,7.422251999E-2,2.719896078E0,7.005648136E0
1.867410205E2,5.865973234E-1,2.863552570E0,5.849213123E0
1.868410892E2,-3.184385598E-1,3.912245035E0,7.881952763E0
1.869411631E2,1.465296149E0,5.604997158E0,1.016609097E1
1.870412215E2,9.553156495E-1,4.896292210E0,1.462183666E1
1.871412877E2,2.729473412E-1,2.657644987E0,9.658504486E0
1.872413593E2,1.288119793E0,2.901860952E0,5.159662247E0
1.873414260E2,4.908263385E-1,4.321666241E0,6.636929989E0
1.874414884E2,-1.515576005E0,5.281770229E0,9.402317047E0
1.875415609E2,-8.212362528E-1,5.954561234E0,1.116450310E1
1.876416297E2,5.961744189E-1,3.617749214E0,1.111901188E1
1.877416951E2,-1.532335877E-1,2.760598898E0,6.718335152E0
1.878417563E2,-2.873129845E-1,2.928198099E0,6.352011204E0
1.879418235E2,-9.433442950E-1,4.470110893E0,8.332076073E0
1.880418989E2,4.668835998E-1,5.229096413E0,1.028819847E1
1.881419646E2,-9.720755816E-1,3.502824068E0,1.367370319E1
1.882420260E2,8.763045669E-1,3.026363373E0,8.008849144E0
1.883420935E2,-4.956148863E-1,2.676799297E0,5.918647289E0
1.884421600E2,-1.393467903E0,4.228289127E0,7.860404015E0
1.885422251E2,-1.659232497E0,5.712739468E0,1.129858303E1
1.886422988E2,-7.709565163E-1,6.718335152E0,1.255078888E1
1.887423671E2,-1.915419847E-1,2.727078915E0,8.624177933E0
1.888424311E2,-2.801301479E-1,2.418217659E0,5.865973473E0
1.889424959E2,-3.423812985E-1,2.430188894E0,4.336031914E0
1.890425699E2,-7.158881426E-1,4.343214512E0,1.058987713E1
1.891426314E2,1.494027495E0,5.636122704E0,1.304161453E1
1.892426965E2,9.337671846E-2,3.239453793E0,1.349652672E1
1.893427701E2,5.626545548E-1,1.982459545E0,7.292961121E0
1.894428380E2,1.405439258E0,2.751021862E0,4.266597748E0
1.895428901E2,3.639297783E-1,4.371945858E0,7.881952763E0
1.896429706E2,-7.278595567E-1,5.839636326E0,1.080536175E1
1.897430338E2,-1.149251938E0,6.117372036E0,1.414537525E1
1.898430993E2,-4.836435020E-1,2.971295118E0,7.996877670E0
1.899431752E2,4.620950520E-1,2.466103077E0,5.523591995E0
1.900432350E2,2.729473412E-1,3.076643229E0,6.395108223E0
1.901433008E2,1.379102230E0,4.671230316E0,1.098253822E1
1.902433718E2,1.168406129E0,5.889915943E0,1.235685253E1
1.903434369E2,1.007989645E0,3.471698523E0,1.276387882E1
1.904435032E2,9.337671846E-2,2.094990492E0,7.297749519E0
1.905435611E2,3.351984620E-1,3.186779737E0,3.586623669E0
1.906436346E2,3.232271075E-1,5.542746067E0,5.444581032E0
1.907437043E2,-1.082212210E0,6.076669693E0,1.205996227E1
1.908437721E2,-4.357580245E-1,5.202759266E0,1.528265572E1
1.909438417E2,8.619388938E-2,3.083826065E0,7.015225410E0
1.910439089E2,-2.657645047E-1,2.214704275E0,5.588237286E0
1.911439814E2,-1.316851079E-1,2.370332003E0,6.438204765E0
1.912440542E2,2.904255390E0,5.631334305E0,1.013735962E1
1.913441070E2,1.604164124E0,5.106987953E0,1.360905838E1
1.914441864E2,2.502017260E0,2.885101080E0,1.222756100E1
1.915442406E2,1.889082789E0,2.255406857E0,5.027976990E0
1.916443057E2,5.818088055E-1,3.541132450E0,4.096604347E0
1.917443840E2,4.620950520E-1,5.344021320E0,7.963357925E0
1.918444407E2,-6.296942830E-1,6.730306625E0,1.186363125E1
1.919445085E2,2.329629421E0,5.602602959E0,1.377905178E1
1.920445817E2,-6.009629965E-1,3.213116884E0,7.115784645E0
1.921446493E2,8.906702399E-1,2.300898075E0,5.616968632E0
1.922447119E2,9.864411950E-1,4.283357620E0,6.270605564E0
1.923447822E2,9.672870040E-1,6.186806202E0,1.004398251E1
1.924448514E2,1.649655342E0,6.275394440E0,1.262022209E1
1.925449202E2,1.522758722E0,3.462121487E0,1.054917526E1
1.926449808E2,7.541965842E-1,3.213116884E0,4.896292210E0
1.927450534E2,1.053480953E-1,4.187586784E0,4.884320736E0
1.928451185E2,-1.063058019E0,5.296135902E0,8.032792091E0
1.929451824E2,-1.426987767E0,6.447782040E0,1.148533630E1
1.930452496E2,-1.101366431E-1,5.425426483E0,1.300091267E1
1.931470859E2,-4.405465722E-1,3.557892323E0,6.383136749E0
1.932471522E2,-1.652049571E-1,2.837215662E0,6.555524349E0
1.933472235E2,6.249057055E-1,4.257020473E0,6.914665699E0
1.934472951E2,1.381496549E0,6.301731110E0,9.684841156E0
1.935473488E2,5.387118459E-1,5.423032284E0,1.309668350E1
1.936474229E2,1.144463301E0,3.342407703E0,9.514847755E0
1.937474868E2,1.247417212E0,3.155654192E0,5.075862408E0
1.938475555E2,9.481328130E-1,4.573064804E0,5.810904980E0
1.939476217E2,-1.146857619E0,5.241067410E0,9.536396980E0
1.940476894E2,-1.321639657E0,6.368771076E0,1.159786701E1
1.941477567E2,3.208328187E-1,4.431802750E0,1.045100975E1
1.942478266E2,8.379961550E-2,3.160442829E0,7.975329399E0
1.943478907E2,-1.652049571E-1,2.978477955E0,4.802915096E0
1.944479605E2,-6.823683381E-1,4.549122334E0,9.026415825E0
1.945480253E2,4.764606953E-1,5.545140266E0,1.058748341E1
1.946480905E2,-2.083019018E-1,3.514795303E0,1.461704731E1
1.947481601E2,6.344828010E-1,2.667222023E0,7.929838181E0
1.948482259E2,1.939362586E-1,2.944957972E0,4.829252243E0
1.949482990E2,-5.267404318E-1,4.546727657E0,7.920260906E0
1.950483672E2,2.657645047E-1,6.711152077E0,9.012050629E0
1.951484282E2,-8.691217303E-1,5.763019562E0,1.368567467E1
1.952484969E2,-9.720755816E-1,2.980872154E0,7.932232380E0
1.953485676E2,-1.412622184E-1,2.707924843E0,6.711152077E0
1.954486329E2,-3.351984620E-1,3.294522047E0,6.792557716E0
1.955486887E2,2.777358890E-1,4.697566986E0,1.021637058E1
1.956487645E2,9.960182905E-1,4.941783428E0,1.311344337E1
1.957488297E2,7.063110471E-1,3.150865555E0,9.759063721E0
1.958488972E2,1.063058019E0,2.607365370E0,6.830865860E0
1.959489646E2,4.549122155E-1,3.869148016E0,6.174834728E0
1.960490338E2,-7.565908432E-1,4.747847080E0,9.292180061E0
1.961490990E2,-8.834874034E-1,5.487678051E0,1.115732098E1
1.962491710E2,-4.836435020E-1,5.130930901E0,1.146378803E1
1.963492343E2,-7.063110471E-1,2.372726440E0,8.186025620E0
1.964493014E2,5.075862408E-1,3.019180536E0,6.131737709E0
1.965493637E2,-5.147690773E-1,3.945764780E0,6.244268894E0
1.966494343E2,8.763045669E-1,5.607391834E0,1.087958431E1
1.967495041E2,3.591412306E-1,4.506025314E0,1.445663166E1
1.968495677E2,-1.580221355E-1,2.255406857E0,8.286584854E0
1.969496370E2,3.280156553E-1,2.207521439E0,5.772596359E0
1.970497036E2,-3.926610649E-1,4.307300568E0,6.488484859E0
1.971497757E2,-1.812466025E0,5.877944469E0,1.299851799E1
1.972498439E2,1.529941559E0,6.035966873E0,1.204320240E1
1.973499139E2,2.035133541E-1,2.966506481E0,8.480521202E0
1.974499725E2,-3.543526828E-1,1.565855742E0,6.749460697E0
1.975500371E2,1.364736706E-1,2.672010660E0,5.913858891E0
1.976501164E2,7.972934842E-1,4.434196949E0,8.968953133E0
1.977501771E2,1.673598051E0,5.229096413E0,1.109746361E1
1.978502408E2,2.609759569E-1,2.741444588E0,1.374074268E1
1.979503155E2,5.865973234E-1,1.810071707E0,8.032792091E0
1.980503799E2,9.672870040E-1,2.722290516E0,4.582642078E0
1.981504518E2,-2.154847234E-2,4.209135056E0,8.585869789E0
1.982505103E2,-1.479661822E0,5.205153465E0,1.080536175E1
1.983505766E2,5.027977005E-2,4.898686409E0,1.297457504E1
1.984506524E2,-9.481328130E-1,2.425400496E0,8.552350044E0
1.985507129E2,7.254652381E-1,2.236252785E0,8.181237221E0
1.986507766E2,4.070267081E-1,2.810878515E0,7.553936958E0
1.987508477E2,1.652049661E0,4.503631115E0,1.082451630E1
1.988509178E2,1.910631299E0,5.085439682E0,1.100408745E1
1.989509884E2,7.182824612E-2,2.631308079E0,1.027862167E1
1.990510554E2,3.974496126E-1,2.118933201E0,6.967339516E0
1.991511178E2,-9.577099234E-2,3.323253393E0,6.471724987E0
1.992511875E2,-1.173194647E-1,5.710345268E0,1.010862827E1
1.993512539E2,-5.482889414E-1,4.561093330E0,1.200010490E1
1.994513160E2,2.466102988E-1,1.965699673E0,1.037678719E1
1.995513818E2,2.490045726E-1,1.345582485E0,6.308914185E0
1.996514497E2,6.536370516E-1,2.513988495E0,6.136526108E0
1.997515164E2,4.501236677E-1,4.168432236E0,9.464568138E0
1.998515847E2,1.046298146E0,4.496448040E0,1.222995567E1
1.999516542E2,3.423812985E-1,2.298503876E0,1.336005306E1
2.000517148E2,4.142095447E-1,1.000806928E0,8.186025620E0
2.001517836E2,1.154040456E0,1.529941559E0,4.980091572E0
2.002518575E2,1.652049571E-1,3.809291124E0,8.418270111E0
2.003519231E2,2.178790122E-1,4.259414673E0,1.282852459E1
2.004524381E2,1.048692346E0,3.960130453E0,1.339596748E1
2.005525069E2,9.409499764E-1,2.102173328E0,8.595446587E0
2.006525742E2,-3.375927508E-1,1.740637779E0,5.413455486E0
2.007526395E2,-6.560313106E-1,2.863552570E0,7.067899227E0
2.008527071E2,1.185166001E0,4.908263206E0,1.120281219E1
2.009527739E2,1.283331275E0,4.644893169E0,1.163856983E1
2.010528476E2,3.830839694E-2,2.451737404E0,1.304161453E1
2.011529127E2,1.237840056E0,2.796513081E0,6.103006363E0
2.012529747E2,3.375927508E-1,3.246636629E0,5.540351868E0
2.013530492E2,2.490045726E-1,4.687990189E0,9.313729286E0
2.014531095E2,-3.447755575E-1,5.104593754E0,1.119802284E1
2.015531738E2,5.482889414E-1,3.481275558E0,1.391313076E1
2.016532426E2,-2.705530524E-1,2.071047783E0,7.285778046E0
2.017533095E2,4.692778587E-1,2.408640385E0,5.461340904E0
2.018533784E2,-3.830839694E-2,3.457332850E0,8.250671387E0
2.019534491E2,1.683175206E0,4.994457245E0,1.027622795E1
2.020535150E2,8.020820618E-1,4.908263206E0,1.097056675E1
2.021535818E2,1.771763325E0,2.731867552E0,1.056354046E1
2.022536504E2,4.932205975E-1,2.183578730E0,6.347222328E0
2.023537135E2,2.394274771E-1,3.390293121E0,4.690384388E0
2.024537850E2,7.422251701E-1,5.875550270E0,9.024022102E0
2.025538401E2,2.032739401E0,5.966532707E0,1.170560932E1
2.026539125E2,2.293715239E0,4.058295727E0,1.207672215E1
2.027539906E2,-4.070267081E-2,2.207521439E0,7.326480865E0
2.028540495E2,1.987248063E-1,2.202732801E0,5.827664852E0
2.029541149E2,1.218685865E0,4.027170181E0,7.640130997E0
2.030541828E2,2.250618219E0,5.157268047E0,1.058030033E1
2.031542515E2,8.116591573E-1,4.707144260E0,1.400171947E1
2.032543175E2,1.240234375E0,3.031152010E0,8.238699913E0
2.033543940E2,5.722316504E-1,2.348783493E0,5.162056446E0
2.034544547E2,3.423812985E-1,3.768588543E0,7.704776287E0
2.035545189E2,5.291347504E-1,5.025582790E0,1.063057995E1
2.036545856E2,-2.537931204E-1,5.624151707E0,1.337681293E1
2.037546522E2,1.182771802E0,3.031152010E0,9.375980377E0
2.038547263E2,9.074301720E-1,2.152452946E0,4.616161823E0
2.039547880E2,8.116591573E-1,2.648067951E0,6.632141113E0
2.040548596E2,8.116591573E-1,4.348002911E0,1.036721039E1
2.041549295E2,2.087807655E0,5.035160065E0,1.102563572E1
2.042549875E2,5.243461728E-1,3.170019865E0,1.287640953E1
2.043550601E2,1.149251908E-1,2.399063349E0,9.227535248E0
2.044551232E2,1.137280583E0,2.873129845E0,3.924216509E0
2.045551911E2,4.453351200E-1,4.450956821E0,6.840443134E0
2.046552552E2,-5.889915824E-1,5.727105141E0,1.145181656E1
2.047553239E2,4.333637357E-1,6.488484859E0,1.229938984E1
2.048553968E2,-2.250618339E-1,3.363956213E0,9.160495758E0
2.049554575E2,1.280937076E0,2.291321039E0,6.603409767E0
2.050555378E2,4.405465722E-1,2.614548206E0,6.076669693E0
2.051555932E2,1.077423692E0,4.561093330E0,1.104718399E1
2.052556623E2,2.279349566E0,5.322473049E0,1.225150394E1
2.053557289E2,1.369525194E0,3.371139050E0,1.071916866E1
2.054557949E2,9.768640995E-1,2.717501879E0,6.440599442E0
2.055558575E2,-3.471698463E-1,3.493247032E0,5.396695614E0
2.056559385E2,8.786988258E-1,4.252232075E0,9.404711723E0
2.057559938E2,1.843591630E-1,6.021601200E0,1.165772438E1
2.058560660E2,2.820455790E0,4.807703972E0,9.627379417E0
2.059561283E2,9.122186899E-1,2.751021862E0,7.625765324E0
2.060562010E2,6.991282701E-1,2.504411459E0,6.586649895E0
2.061562659E2,5.363175869E-1,4.448562622E0,8.193208694E0
2.062563331E2,-4.070267081E-2,5.779779434E0,1.133210278E1
2.063563964E2,-8.140534163E-1,4.738269806E0,1.342948723E1
2.064564674E2,-7.182824612E-2,2.128510237E0,9.615407944E0
2.065565317E2,9.768640995E-1,2.444554567E0,4.369551659E0
2.066566018E2,9.481328130E-1,4.654470444E0,6.617775440E0
2.067566721E2,-7.518022656E-1,5.990475655E0,1.022834206E1
2.068567423E2,-3.639297783E-1,7.618582249E0,1.355159569E1
2.069568158E2,3.711125851E-1,3.794925690E0,7.534782887E0
2.070568831E2,5.937801600E-1,2.746233225E0,7.343240738E0
2.071569459E2,5.985686928E-2,3.371139050E0,5.585843086E0
2.072570084E2,7.326480746E-1,5.786962032E0,9.486116409E0
2.073570815E2,4.812492430E-1,6.555524349E0,9.816526413E0
2.074571395E2,-9.098244309E-1,4.130124092E0,1.370722294E1
2.075572004E2,2.035133600E0,2.672010660E0,7.589851379E0
2.076573551E2,-3.615354896E-1,2.250618219E0,5.008822918E0
2.077574361E2,3.806896806E-1,5.135719299E0,8.257853508E0
2.078574906E2,6.823683381E-1,6.907482624E0,1.081493950E1
2.079575587E2,7.374366522E-1,7.211555958E0,1.280218697E1
2.080576252E2,-6.680026650E-1,2.827638626E0,7.489291668E0
2.081576975E2,1.067846537E0,3.124528646E0,5.293741703E0
2.082577632E2,-1.364736706E-1,3.577046633E0,6.160469055E0
2.083578350E2,7.925049663E-1,5.638517380E0,1.074311066E1
2.084578931E2,1.259388566E0,6.363982677E0,1.062818623E1
2.085579603E2,1.367130876E0,3.651269197E0,1.072635078E1
2.086580278E2,2.801301479E-1,2.786935806E0,6.445387840E0
2.087581019E2,-7.398309112E-1,3.361561775E0,5.688796997E0
2.088581675E2,1.747820675E-1,5.423032284E0,7.951386452E0
2.089582290E2,-4.956148863E-1,5.854001999E0,1.064494610E1
2.090582987E2,8.092648983E-1,4.223500729E0,1.286683273E1
2.091583666E2,-1.029538140E-1,2.497228622E0,7.613793850E0
2.092584310E2,6.895511150E-1,2.827638626E0,5.839636326E0
2.093584984E2,2.873129845E-1,3.663240433E0,6.873962879E0
2.094585754E2,1.259388566E0,4.896292210E0,1.026904488E1
2.095586288E2,7.326480746E-1,4.427014351E0,1.580460835E1
2.096586979E2,1.824437380E0,3.268185139E0,9.404711723E0
2.097587701E2,5.578660369E-1,2.279349566E0,5.281770229E0
2.098588355E2,-3.663240373E-1,3.371139050E0,6.249057293E0
2.099589004E2,-9.648927450E-1,5.030371189E0,9.648927689E0
2.100589686E2,1.939362586E-1,6.208354473E0,1.467451000E1
2.101590369E2,3.208328187E-1,3.062277555E0,9.251478195E0
2.102591124E2,5.530774593E-1,2.609759569E0,6.565101624E0
