"Time (s)","Gyroscope x (rad/s)","Gyroscope y (rad/s)","Gyroscope z (rad/s)"
2.697755800E-1,-4.505546689E-1,-3.415530920E-2,-6.486472487E-2
3.698403600E-1,-7.120733708E-2,2.236298174E-1,-1.393902898E-1
4.699074090E-1,4.584128559E-1,2.724990547E-1,-1.039600968E-1
5.699718630E-1,-1.500773709E-2,-5.039106607E-1,-7.753010392E-1
6.700550460E-1,8.139364123E-1,-7.348177433E-1,1.495489776E-1
7.701164590E-1,-5.568451881E-1,6.451268196E-1,-4.118361771E-1
8.701790100E-1,2.275057733E-1,-1.117351949E-1,3.218129873E-1
9.702443240E-1,7.736192942E-1,-4.128917456E-1,4.928552508E-1
1.070322276E0,-1.579502076E-1,5.394471288E-1,-1.355204545E-2
1.170379527E0,4.321456254E-1,9.236813784E-1,-2.332589030E-2
1.270444982E0,-1.872717440E-1,-2.717818916E-1,2.124680877E-1
1.370528763E0,-8.164629340E-1,7.763303071E-2,-2.414047867E-1
1.470578812E0,-2.080411464E-1,2.425666451E-1,-9.601885080E-2
1.570653425E0,4.290913045E-1,5.136582628E-2,-1.222860590E-1
1.670743472E0,6.745906919E-2,-1.715999842E-1,-6.231955290E-1
1.770790856E0,6.086856723E-1,-7.238221169E-1,1.648205966E-1
1.870851572E0,-5.238584876E-1,2.798294425E-1,-3.195955157E-1
1.970914417E0,-9.509949945E-3,7.213524729E-2,2.432160079E-2
2.070985732E0,7.870583534E-1,-2.254886739E-2,8.282202482E-1
2.171056714E0,1.279347241E-1,3.005988598E-1,3.554105461E-1
2.271122432E0,3.948828578E-1,1.631541550E-1,6.341698021E-2
2.371183880E0,1.572562605E-1,-7.085505128E-1,1.996399164E-1
2.471255932E0,-6.564162374E-1,1.130632162E-1,-7.952549309E-2
2.571320047E0,-2.025433630E-1,1.043785457E-2,-2.332589030E-2
2.671385528E0,3.001987338E-1,-1.489979774E-1,-2.200245112E-1
2.771451341E0,6.563332081E-1,-7.507002354E-1,-1.607705653E-1
2.871537187E0,3.869415820E-1,-2.748362124E-1,-2.817218900E-1
2.971588868E0,-4.401699603E-1,3.464137316E-1,-2.126941234E-1
3.071654016E0,-3.027937002E-2,1.888104975E-1,-1.277838498E-1
3.171732495E0,3.417375684E-1,4.329202231E-3,2.796632648E-1
3.271789243E0,4.156522453E-1,-3.035468757E-1,3.859538138E-1
3.371852931E0,1.089979112E-1,-1.899259537E-1,1.489381045E-1
3.471927810E0,2.018494308E-1,-4.880281985E-1,2.839393318E-1
3.571992527E0,-6.448098421E-1,-4.515088350E-2,-1.002949029E-1
3.672071139E0,-9.355816841E-1,4.001698792E-1,-2.059745938E-1
3.772132590E0,1.077761799E-1,-2.125279605E-1,-2.556471154E-3
3.872189508E0,-7.975945622E-2,-2.241344005E-1,-4.906377792E-1
3.972264722E0,3.588418067E-1,2.712773085E-1,-2.096397877E-1
4.072332136E0,3.001987338E-1,-2.369625717E-1,6.280610710E-2
4.172400318E0,-1.744435728E-1,4.770063236E-2,-2.933283448E-1
4.273795768E0,-2.055976838E-1,5.625274777E-2,-1.332816333E-1
4.373855419E0,4.119870663E-1,6.297226995E-2,3.456367254E-1
4.473924869E0,2.861488461E-1,1.252805144E-1,2.527852058E-1
4.573997317E0,2.861488461E-1,5.968684554E-1,1.892552227E-1
4.674058798E0,-4.297852516E-1,-3.334792852E-1,2.371073514E-2
4.774126115E0,-7.352178097E-1,2.230189741E-1,2.814958692E-1
4.874207968E0,1.242695376E-1,-2.846100330E-1,3.547996879E-1
4.974261749E0,3.301311433E-1,-2.045867145E-1,2.088029087E-1
5.074327697E0,-2.355985157E-2,-2.552885413E-1,-3.183737993E-1
5.174394745E0,1.444280893E-1,-4.270742089E-2,-1.271729767E-1
5.274461696E0,-2.361409664E-1,3.396942019E-1,-5.692347884E-2
5.374527248E0,-9.319848567E-2,-1.331154853E-1,3.279216290E-1
5.474595929E0,3.728916943E-1,1.374978125E-1,2.540069222E-1
5.574667009E0,-2.526343167E-1,3.836764991E-1,5.425399914E-2
5.674732090E0,-1.274069399E-1,5.363928080E-1,2.362918407E-1
5.774797039E0,-2.202584594E-1,-4.776434600E-1,1.727618575E-1
5.874868385E0,-5.763928890E-1,6.052880362E-2,1.110644639E-1
5.974931502E0,1.499258727E-1,-2.400168926E-1,2.615419589E-2
6.075005585E0,-3.638802096E-2,2.028604150E-1,-1.467206776E-1
6.175072298E0,-3.460967243E-1,-2.247452736E-1,-8.345549107E-1
6.275127213E0,5.763098001E-1,-6.286597252E-2,-2.114723772E-1
6.375198029E0,-3.845812082E-1,1.368869692E-1,-6.824494600E-1
6.475267444E0,-4.012163263E-3,-2.675058246E-1,1.147296503E-1
6.575339491E0,3.881633282E-1,1.704845428E-1,1.666532010E-1
6.675404404E0,-2.813449800E-1,-3.475291729E-1,1.916986704E-1
6.775469589E0,-4.560524225E-1,5.382254124E-1,8.968418092E-2
6.875534870E0,-5.018673539E-1,-7.691587508E-2,1.440511942E-1
6.975603282E0,-7.755349874E-1,2.175211757E-1,-6.547559053E-2
7.075669698E0,3.056965172E-1,-2.070301622E-1,4.800270796E-1
7.175749944E0,-2.257562429E-1,-1.245633587E-1,-4.332164526E-1
7.275811893E0,3.478462100E-1,-3.469183147E-1,-6.335802674E-1
7.375873210E0,4.553584754E-1,7.306479216E-1,-1.009057760E-1
7.475938024E0,-3.179968894E-1,-1.031830832E-1,2.004554309E-2
7.576012171E0,1.945190430E-1,-4.538197219E-1,6.474041939E-1
7.676073251E0,3.435701728E-1,1.833127141E-1,2.167441547E-1
7.776140597E0,2.286590822E-2,-6.951115131E-1,2.020833939E-1
7.876209344E0,-3.931333423E-1,4.661433399E-1,-2.530112267E-1
7.976273527E0,-2.043759674E-1,1.106197536E-1,1.330556124E-1
8.076344510E0,-4.780435860E-1,6.541572511E-2,1.843682975E-1
8.176408754E0,1.603105962E-1,-2.865752019E-2,1.776487678E-1
8.276478999E0,-3.822061419E-2,-9.218750894E-2,-2.908848524E-1
8.376540851E0,6.318301708E-2,-2.449038178E-1,-5.370635390E-1
8.476612132E0,6.056313515E-1,-2.204692066E-1,1.393689029E-2
8.576679313E0,-2.312540263E-1,1.600998342E-1,-2.120832503E-1
8.676742727E0,-1.756653041E-1,-9.707443416E-2,9.579282999E-2
8.776819309E0,1.444280893E-1,3.262552023E-1,3.474693000E-1
8.876878458E0,3.203572631E-1,-1.147895232E-1,6.382411718E-1
8.976952573E0,4.539950285E-3,1.729280055E-1,2.668351233E-1
9.077014755E0,-5.898318887E-1,-3.476617485E-2,-3.232607245E-1
9.177079736E0,-6.228186488E-1,1.930865645E-1,-2.096397877E-1
9.277147916E0,9.250454605E-2,-4.886390269E-1,5.791918933E-2
9.377212101E0,1.297673136E-1,-2.259669900E-1,-3.745734096E-1
9.477285115E0,1.187033392E-2,-7.141809165E-2,-5.052985549E-1
9.577348193E0,3.399049640E-1,5.559405088E-1,-1.882595122E-1
9.677420543E0,-8.647897094E-2,3.329747021E-1,-1.436663419E-1
9.777485324E0,3.722808361E-1,-1.599935442E-1,6.162499785E-1
9.877548506E0,1.847451925E-1,2.376797199E-1,1.941421330E-1
9.977615820E0,2.225504257E-2,-5.527799129E-1,1.660423428E-1
1.007769130E1,-3.271598816E-1,4.905779362E-1,-5.509088188E-2
1.017775048E1,-1.665023267E-1,-4.306068420E-1,5.899828076E-1
1.027782057E1,-8.770070225E-2,-1.094242930E-2,5.325614810E-1
1.037788495E1,1.975733638E-1,-1.288394183E-1,1.782596409E-1
1.047796236E1,-5.043792352E-2,-7.433698773E-1,-4.130579233E-1
1.057802964E1,-1.237417534E-1,-8.241366595E-2,-6.445758939E-1
1.067808836E1,1.792474091E-1,-1.557174921E-1,-1.296164393E-1
1.077815924E1,-1.665023267E-1,-1.367806643E-1,-1.180099994E-1
1.087822846E1,3.979371786E-1,-4.392915219E-2,4.000037313E-1
1.097828917E1,2.666011453E-1,1.943082958E-1,1.819248348E-1
1.107835838E1,4.022132158E-1,-3.542487025E-1,1.452729255E-1
1.117843036E1,-1.243526191E-1,5.319842324E-2,-1.839834452E-1
1.127849275E1,-5.256910920E-1,1.857561767E-1,-2.041420043E-1
1.137855736E1,-2.037650943E-1,-1.667130738E-1,-3.309973329E-2
1.147862901E1,-2.031542361E-1,-1.954237372E-1,-2.175810337E-1
1.157868940E1,4.492498338E-1,-1.479462504E0,1.623771489E-1
1.167881405E1,7.051339746E-2,1.161175370E-1,-7.759118676E-1
1.177888330E1,-3.314359486E-1,2.004169524E-1,-7.655271888E-1
1.187896051E1,-2.227019221E-1,-1.080700010E-1,-1.516075879E-1
1.197901629E1,2.177319229E-1,6.480485946E-2,7.543055415E-1
1.207909084E1,1.309890598E-1,3.891743124E-1,4.287143946E-1
1.217915225E1,4.804039896E-1,-3.151533306E-1,5.655482411E-1
1.227921124E1,-1.793304831E-1,5.625274777E-2,2.309986949E-2
1.237929459E1,-5.085868239E-1,-1.807629764E-1,2.265179902E-1
1.247935837E1,-5.818907022E-1,7.335697114E-2,1.672640741E-1
1.257941955E1,3.173029423E-1,-2.980490923E-1,3.291433752E-1
1.267948507E1,-1.872717440E-1,-9.638922215E-1,-8.247810602E-1
1.277955201E1,4.327565134E-1,-8.180279285E-2,-3.189846873E-1
1.287961946E1,2.293383628E-1,-1.868716180E-1,-2.615633309E-1
1.297968881E1,-2.031542361E-1,-1.722108573E-1,-1.839834452E-1
1.307975972E1,5.768522620E-2,3.500789106E-1,2.228527963E-1
1.317982074E1,2.782075703E-1,4.056676626E-1,2.802741528E-1
1.327988326E1,9.348877072E-1,3.042640388E-1,6.614540219E-1
1.337995464E1,-2.905763872E-2,3.506897986E-1,2.582829893E-1
1.348003359E1,-6.521402001E-1,9.826988913E-3,-1.660637185E-2
1.358009504E1,-3.008926809E-1,-1.801521033E-1,9.701456130E-2
1.368015636E1,4.608562887E-1,-5.064867064E-2,1.446620524E-1
1.378022924E1,3.087508678E-1,-1.323080897E0,-8.319067955E-2
1.388029458E1,3.252441883E-1,6.243574023E-1,4.978551879E-4
1.398036207E1,-1.561860275E-2,-2.626188993E-1,-3.470844626E-1
1.408042402E1,-9.136588871E-2,-3.049011528E-2,-4.686466753E-1
1.418049203E1,4.278695583E-1,-5.675732344E-2,2.558395267E-1
1.428055981E1,4.058100283E-2,1.497151405E-1,-8.991020173E-2
1.438062763E1,4.150413871E-1,-1.251742393E-1,2.515634894E-1
1.448069421E1,-1.255743504E-1,1.167284101E-1,1.098427325E-1
1.458075832E1,-2.764580548E-1,1.654650643E-2,2.737592533E-2
1.468082687E1,-3.858029544E-1,-1.216415968E-2,5.669745803E-2
1.478089555E1,6.196128577E-2,-3.921223581E-1,7.217372768E-3
1.488097367E1,4.974398017E-2,-5.081867576E-1,-1.271729767E-1
1.498102942E1,-3.381554484E-1,5.516644716E-1,-2.420156449E-1
1.508110233E1,3.447234631E-2,6.052880362E-2,-2.210415900E-2
1.518117051E1,5.150815938E-3,-8.363538980E-2,-1.721723750E-2
1.528123363E1,2.611033618E-1,2.535622120E-1,4.586468041E-1
1.538129651E1,2.623250782E-1,1.142849401E-1,3.609083593E-1
1.548136453E1,2.152884603E-1,-3.084338009E-1,3.169260621E-1
1.558142654E1,-5.593570694E-2,1.362760961E-1,1.306121498E-1
1.568150649E1,-5.006455779E-1,-1.728217155E-1,-1.110858470E-2
1.578157261E1,-5.134737492E-1,1.203936040E-1,1.141187921E-1
1.588163225E1,2.360578775E-1,-4.525980055E-1,2.552286685E-1
1.598169943E1,-4.860532656E-2,-8.466060758E-1,-6.036478877E-1
1.608177728E1,3.698373735E-1,1.252805144E-1,-3.226498663E-1
1.618183520E1,2.110124081E-1,-3.921223581E-1,1.379425377E-1
1.628190314E1,-1.616154015E-1,3.487246484E-2,-2.511786222E-1
1.638196812E1,6.929166615E-2,2.120233923E-1,4.978551879E-4
1.648203840E1,4.376434088E-1,4.708976671E-2,2.381244302E-1
1.658209945E1,6.196128577E-2,-6.431879997E-1,2.973783612E-1
1.668217047E1,-3.057796061E-1,4.606455266E-1,1.055666804E-1
1.678224172E1,-2.281997055E-1,-2.699492872E-1,3.047087491E-1
1.688232053E1,-4.719349444E-1,9.779158980E-2,1.141187921E-1
1.698237178E1,4.034349620E-1,-5.802688599E-1,1.330556124E-1
1.708243769E1,-2.789015174E-1,-6.401336193E-1,-6.494627595E-1
1.718250630E1,2.898140252E-1,1.778149307E-1,-3.079890907E-1
1.728257865E1,5.647033453E-1,-2.736144662E-1,1.788705140E-1
1.738264784E1,-3.515944779E-1,-3.049011528E-2,-4.466555119E-1
1.748271252E1,-3.430424035E-1,3.506897986E-1,-1.241186559E-1
1.758278126E1,7.644562721E-1,-7.630500942E-2,7.066580653E-1
1.768284271E1,4.388651550E-1,-3.652442694E-1,3.853429556E-1
1.778290813E1,5.096571147E-2,6.872765422E-1,-2.554546893E-1
1.788297538E1,-5.586777925E-1,-2.320756465E-1,-2.884414196E-1
1.798304239E1,-7.547655702E-1,1.332217753E-1,1.434403211E-1
1.808311007E1,1.487041414E-1,-4.006744623E-1,3.774017096E-1
1.818317985E1,4.424619302E-2,-1.190655753E-1,-5.596655607E-1
1.828324597E1,-2.416387498E-1,9.412639588E-2,-9.542845488E-1
1.838331091E1,6.984828711E-1,-2.235235274E-1,1.605445594E-1
1.848337630E1,-4.212331176E-1,3.792679310E-2,-3.904559016E-1
1.858344738E1,-1.322938651E-1,5.136582628E-2,-3.745734096E-1
1.868351320E1,5.775315762E-1,4.708976671E-2,1.617662758E-1
1.878358265E1,6.257214397E-2,-1.160112545E-1,3.165198490E-2
1.888364806E1,8.822849393E-2,4.942431450E-1,2.173550129E-1
1.898378253E1,-2.049868256E-1,-3.426422477E-1,1.538250297E-1
1.908385028E1,-5.953297019E-1,2.657795548E-1,-1.143448129E-1
1.918391730E1,9.494800866E-2,-1.783194989E-1,1.562684923E-1
1.928398488E1,-7.181821018E-2,-1.099025980E-1,-6.543496847E-1
1.938405116E1,6.501560658E-2,-1.715999842E-1,-9.500085115E-1
1.948411807E1,2.330035567E-1,4.337674677E-1,-5.443938971E-1
1.958418708E1,-2.501908541E-1,-2.003106475E-1,-6.274716258E-1
1.968425194E1,-2.123172134E-1,3.609419614E-2,-1.007429838E0
1.978432018E1,3.142486215E-1,-7.447241247E-2,-4.423794448E-1
1.988439443E1,2.635468245E-1,6.048097610E-1,-6.073130369E-1
1.998446598E1,8.371492624E-1,2.224081010E-1,-2.462916970E-1
2.008453313E1,-4.982705787E-2,-4.605392516E-1,-4.576510787E-1
2.018459497E1,-6.894029379E-1,-2.381843030E-1,-6.647343636E-1
2.028465489E1,-7.181821018E-2,-6.666372530E-3,-4.668140709E-1
2.038472454E1,3.044748008E-1,-6.431879997E-1,-6.005935669E-1
2.048479062E1,-2.165932655E-1,-1.233283758E0,-1.188856840E0
2.058485296E1,-1.304612756E-1,4.239936173E-1,-1.231006503E0
2.068492575E1,5.231645703E-1,-7.274873853E-1,-3.037130535E-1
2.078499136E1,-1.512306780E-1,-7.189352512E-1,-1.003764629E0
2.088506648E1,6.318301708E-2,-2.442929596E-1,-5.814520642E-2
2.098513006E1,3.618961275E-1,-6.666372530E-3,1.501598358E-1
2.108519217E1,6.349529028E-1,-5.992056727E-1,3.043025173E-2
2.118525978E1,3.929085098E-3,1.020676419E-1,-4.668140709E-1
2.128532680E1,-3.491510451E-1,-4.409915507E-1,-5.511134863E-1
2.138539612E1,-3.021143973E-1,-1.288394183E-1,-5.370635390E-1
2.148546430E1,1.102196351E-1,-5.436169505E-1,-3.635778129E-1
2.158552622E1,-1.891043335E-1,-5.729385018E-1,-5.462265611E-1
2.168559503E1,-3.272282705E-2,3.085401058E-1,-3.886232972E-1
2.178566185E1,3.154703677E-1,-4.165569544E-1,-1.021274999E-1
2.188572883E1,-1.805522144E-1,2.834946215E-1,-4.857508838E-1
2.198579631E1,5.707436055E-2,-5.370299518E-2,-5.386915058E-2
2.208586990E1,4.785713851E-1,-1.318937540E-1,3.554105461E-1
2.218592994E1,-1.231308803E-1,-3.841810822E-1,1.703183949E-1
2.228600339E1,-2.153715342E-1,3.549658656E-1,1.709292531E-1
2.238607138E1,-3.967985213E-1,-1.129569262E-1,4.631274939E-2
2.248613996E1,-2.911188304E-1,-6.103337929E-2,1.190057173E-1
2.258619510E1,1.987951100E-1,-3.909006119E-1,3.370845914E-1
2.268626718E1,-4.688806236E-1,-6.511291862E-1,-2.701154351E-1
2.278633293E1,-2.281997055E-1,7.641129941E-2,-5.089637637E-1
2.288640214E1,1.065544412E-1,-3.511943519E-1,-3.391432166E-1
2.298647309E1,-1.946021169E-1,1.002350450E-1,-3.886232972E-1
2.308653787E1,4.144305289E-1,-4.159460664E-1,2.008616477E-1
2.318660395E1,4.840691388E-1,3.427485228E-1,-1.668792218E-1
2.328668010E1,1.077761799E-1,-1.178438514E-1,1.576948725E-2
2.338673718E1,-2.043759674E-1,1.387195587E-1,-1.100687534E-1
2.348680512E1,-2.324757725E-1,-2.296321839E-1,2.705003023E-1
2.358686700E1,-1.090809852E-1,1.222261935E-1,4.684206247E-1
2.368693872E1,3.875524700E-1,-2.607863247E-1,1.245035008E-1
2.378700406E1,-1.567284763E-1,-8.221714497E-1,-7.942378521E-1
2.388707622E1,1.749713570E-1,2.334036678E-1,-1.613814384E-1
2.398713776E1,3.808329403E-1,-1.233416349E-1,5.995642394E-3
2.408721314E1,-6.021176651E-2,-1.990889311E-1,-4.545967281E-1
2.418727543E1,2.501077652E-1,-2.377059869E-2,-2.210415900E-2
2.428734164E1,6.806994230E-2,-1.282285601E-1,1.354990751E-1
2.438741072E1,2.855379581E-1,9.933199883E-1,1.886443496E-1
2.448747967E1,-4.756001234E-1,1.985843480E-1,8.235380054E-2
2.458754798E1,-1.390133798E-1,-6.653116643E-2,4.714749455E-1
2.468761993E1,-1.634479910E-1,8.985033631E-2,2.698894441E-1
2.478768302E1,-1.866608709E-1,-6.897462159E-2,-5.254570842E-1
2.488774806E1,-4.218440056E-1,-2.442929596E-1,-8.993066549E-1
2.498780888E1,3.948828578E-1,3.354181647E-1,3.627409339E-1
2.508787726E1,-2.483582646E-1,2.327927947E-1,4.936707392E-2
2.518794331E1,-3.277707398E-1,1.349218097E-2,-3.996188641E-1
2.528801059E1,4.974398017E-2,4.246045053E-1,2.894371152E-1
2.538808101E1,-5.288138241E-2,-7.812435031E-1,3.505236506E-1
2.548815572E1,-3.027937002E-2,4.160523713E-1,3.150934577E-1
2.558820774E1,-2.807341218E-1,-5.992056727E-1,6.524956971E-2
2.568829082E1,-7.792685926E-2,1.227045059E-2,3.450258374E-1
2.578835360E1,9.983493388E-2,-1.300611645E-1,1.697075367E-1
2.588841801E1,-6.075469851E-1,-3.463074267E-1,-9.719996452E-1
2.598848276E1,2.470534444E-1,-2.504016161E-1,-3.507496715E-1
2.608855457E1,4.486389756E-1,3.609419614E-2,-1.900921017E-1
2.618862085E1,2.183427960E-1,-2.320756465E-1,-3.880124390E-1
2.628899914E1,2.525512278E-1,-1.887042075E-1,2.931022942E-1
2.638906632E1,2.818727791E-1,2.676121294E-1,4.543707371E-1
2.648914024E1,1.492465939E-2,5.602165461E-1,8.052120358E-2
2.658920046E1,-2.935622931E-1,-1.888367720E-2,-1.290055662E-1
2.668927521E1,-5.452387929E-1,-3.279815018E-1,-1.143448129E-1
2.678933412E1,1.578671336E-1,-6.902245879E-1,2.876045108E-1
2.688940850E1,-3.314359486E-1,-4.049504995E-1,-5.370635390E-1
2.698946775E1,-7.670512050E-2,5.706012845E-1,-7.056623697E-1
2.708954290E1,9.012901187E-1,-1.642696112E-1,6.889429688E-1
2.718960545E1,-9.075503051E-2,1.796475202E-1,-7.036250830E-2
2.728967200E1,-1.561176181E-1,1.466607898E-1,1.501598358E-1
2.738973648E1,7.840040326E-1,-2.235235274E-1,7.103232145E-1
2.748980733E1,-2.722504176E-2,3.714592159E-1,5.730832368E-2
2.758987254E1,-1.848282814E-1,-1.465545148E-1,-1.904983260E-2
2.768994362E1,-4.084049761E-1,-2.499233000E-2,2.493246458E-2
2.779000657E1,-3.418206573E-1,-6.347683817E-2,1.238926351E-1
2.789007642E1,1.908538491E-1,-6.706768870E-1,9.151677787E-2
2.799013950E1,-4.884283245E-1,-6.150881052E-1,-8.015682101E-1
2.809020791E1,2.476643175E-1,2.443992496E-1,-1.599550620E-2
2.819027966E1,2.995878458E-1,-4.605392516E-1,3.981711566E-1
2.829034177E1,8.028724045E-2,-1.410567313E-1,-1.662683636E-1
2.839040915E1,-2.208693177E-1,2.828837633E-1,-2.420156449E-1
2.849047447E1,-1.451220363E-1,7.379783392E-1,2.796632648E-1
2.859053841E1,2.989769876E-1,9.920983315E-1,4.592576623E-1
2.869061699E1,-2.330866307E-1,-7.874847203E-2,1.690966636E-1
2.879067927E1,-5.470713377E-1,3.103726804E-1,-1.619922966E-1
2.889074382E1,-4.921618849E-2,-2.736144662E-1,2.173550129E-1
2.899081127E1,-7.303993404E-2,-8.485712111E-2,-3.696864843E-1
2.909088262E1,7.662204653E-2,-5.920078233E-2,-5.199593306E-1
2.919094503E1,7.644562721E-1,8.374168724E-2,3.169260621E-1
2.929101295E1,2.409447879E-1,-1.880933493E-1,-2.576934919E-2
2.939107993E1,-3.998528421E-1,1.349218097E-2,-3.238715827E-1
2.949115278E1,6.190703511E-1,2.236298174E-1,3.303650916E-1
2.959121540E1,-2.654624879E-1,-2.748362124E-1,-6.119953468E-2
2.969128698E1,-3.247164190E-1,9.412639588E-2,-2.499568909E-1
2.979134936E1,-4.310753942E-2,-4.232764542E-1,2.124680877E-1
2.989141504E1,-2.336974889E-1,4.220284522E-2,1.978073269E-1
2.999148399E1,3.576200604E-1,-5.943187475E-1,2.411787510E-1
3.009154970E1,-4.884283245E-1,-6.749529243E-1,-9.103022218E-1
3.019161639E1,2.397230715E-1,1.362760961E-1,-6.914078444E-2
3.029168700E1,-2.055976838E-1,-1.086808667E-1,1.501598358E-1
3.039175088E1,1.797898673E-2,-1.544957608E-1,-4.289403856E-1
3.049182256E1,-4.181787968E-1,2.627251744E-1,-4.796422422E-1
3.059188818E1,-1.054157913E-1,5.608274341E-1,2.735546231E-1
3.069195786E1,6.520571113E-1,3.940612078E-1,8.208898902E-1
3.079202491E1,-6.081578732E-1,5.412797332E-1,4.448015243E-2
3.089209632E1,-1.066375300E-1,1.387195587E-1,4.134427607E-1
3.099215707E1,3.796111941E-1,-3.676877320E-1,3.419715166E-1
3.109222522E1,6.642743945E-1,-5.674406886E-1,-2.194136381E-1
3.119228657E1,-1.781087667E-1,-3.353118598E-1,-1.530941248E0
3.129235468E1,2.122341245E-1,4.227718711E-1,2.432160079E-2
3.139242193E1,4.974398017E-2,-4.012853205E-1,2.252962589E-1
3.149249888E1,-9.869627655E-2,-3.782049939E-2,-1.369468272E-1
3.159255692E1,4.028241038E-1,4.301022589E-1,5.014073253E-1
3.169262351E1,2.958542667E-2,-1.054911137E0,2.088029087E-1
3.179269533E1,-1.988781691E-1,6.145835519E-1,5.608659238E-2
3.189276861E1,-4.041289091E-1,-6.653116643E-2,1.550467610E-1
3.199283602E1,-1.634479910E-1,-1.074591354E-1,4.378773868E-1
3.209289874E1,3.600635231E-1,-4.000636041E-1,2.344592512E-1
3.219296452E1,-1.012550712E0,1.227045059E-2,-1.017203569E0
3.229303934E1,8.597512841E-1,2.120233923E-1,5.783764124E-1
3.239309226E1,1.542019397E-1,-3.782049939E-2,-4.478772283E-1
3.249316034E1,3.582309186E-1,1.410304569E-2,-5.401178598E-1
3.259323022E1,7.449086308E-1,-2.558993995E-1,1.794813722E-1
3.269330708E1,2.647685409E-1,2.204429358E-2,1.703183949E-1
3.279336272E1,7.234599441E-2,9.206270576E-1,2.973783612E-1
3.289342821E1,-9.930714220E-2,-2.071627229E-2,-4.287357628E-2
3.299349678E1,-4.762110114E-1,1.532477699E-2,2.552286685E-1
3.309356870E1,-9.442021698E-2,-3.945657909E-1,4.989638925E-1
3.319363565E1,-4.273417592E-1,-1.899259537E-1,-5.126289725E-1
3.329369810E1,-1.817739606E-1,-1.893150806E-1,-7.850748301E-1
3.339376361E1,3.716699481E-1,1.240587905E-1,-1.638248861E-1
3.349402455E1,-1.329047233E-1,-8.730058372E-2,-1.626031697E-1
3.359409550E1,1.187033392E-2,-1.888367720E-2,-3.849580884E-1
3.369416098E1,1.939081699E-1,-1.312828809E-1,1.697075367E-1
3.379423299E1,-2.141498178E-1,1.960083470E-2,4.934661090E-1
3.389430394E1,7.284153104E-1,-4.515088350E-2,7.170428038E-1
3.399436329E1,-1.090809852E-1,2.694447339E-1,4.702532291E-1
3.409442920E1,-1.603936553E-1,4.502608478E-1,7.726315260E-1
3.419450202E1,5.793641210E-1,-4.312177002E-1,3.083739281E-1
3.429456460E1,-8.421192765E-1,-1.271157503E0,-9.402346015E-1
3.439463128E1,-1.964347064E-1,6.762809157E-1,-6.830603480E-1
3.449469893E1,3.747242987E-1,-1.117351949E-1,-2.389613241E-1
3.459476278E1,-1.903260648E-1,-5.246801376E-1,-7.795770764E-1
3.469483186E1,-2.434713393E-1,2.847163379E-1,-6.103673577E-1
3.479490374E1,3.508321196E-2,1.288131531E-2,5.753220320E-1
3.489496682E1,8.304297328E-1,1.438029885E0,4.360447824E-1
3.499504346E1,2.397230715E-1,-2.071627229E-2,3.218129873E-1
3.509510155E1,1.273238659E-1,5.730447173E-1,3.493019044E-1
3.519517753E1,-1.396242529E-1,1.374978125E-1,3.071522117E-1
3.529523558E1,-6.710770130E-1,1.960083470E-2,-2.902739942E-1
3.539530629E1,-4.010745883E-1,-8.282801509E-1,-4.833074212E-1
3.549536831E1,3.301311433E-1,5.321167707E-1,-3.065627255E-2
3.559543462E1,-1.170222312E-1,-1.099025980E-1,-2.585090101E-1
3.569551491E1,-1.255743504E-1,8.923947066E-2,-5.364527106E-1
3.579557622E1,6.135725975E-1,-9.951788932E-2,6.608431935E-1
3.589564624E1,-1.420677006E-1,-6.469856948E-2,7.298709750E-1
3.599570815E1,-4.371840134E-2,1.054406643E0,7.653011680E-1
3.609577337E1,-1.347373128E-1,2.920467257E-1,5.160681009E-1
3.619583888E1,-3.809160292E-1,5.919815898E-1,1.226709038E-1
3.629590846E1,2.342252880E-1,-3.175967634E-1,5.612721443E-1
3.639597368E1,-3.008926809E-1,-4.855847061E-1,-2.524003685E-1
3.649605722E1,-1.432894468E-1,1.277239770E-1,-9.823843241E-1
3.659610474E1,4.651323557E-1,-1.825955659E-1,-4.470617324E-2
3.669617425E1,-1.267960668E-1,6.052880362E-2,-2.126941234E-1
3.679624236E1,-1.591719389E-1,1.582672447E-1,-4.356599450E-1
3.689632428E1,8.768555522E-1,-1.905367970E-1,7.671337128E-1
3.699637700E1,1.694735736E-1,1.100088879E-1,5.093486309E-1
3.709644601E1,-1.707783788E-1,2.541730702E-1,1.733727306E-1
3.719651086E1,-3.595357239E-1,2.590599954E-1,2.521743178E-1
3.729658457E1,-1.286286712E-1,1.222261935E-1,2.662242353E-1
3.739664589E1,4.883452058E-1,-6.254728436E-1,1.910878122E-1
3.749671377E1,-4.371156394E-1,-8.698189855E-1,-8.541026115E-1
3.759677799E1,2.568272948E-1,1.471391134E-2,-2.713371813E-1
3.769685064E1,3.080715612E-2,-5.492473021E-2,6.524956971E-2
3.779692509E1,-1.304612756E-1,-1.422784626E-1,-3.134868741E-1
3.789699223E1,-1.463437676E-1,4.270479381E-1,3.470630944E-2
3.799704985E1,6.501560658E-2,3.390833437E-1,3.981711566E-1
3.809711970E1,4.125979245E-1,3.580201864E-1,2.943240404E-1
3.819718478E1,-4.902608991E-1,5.987011194E-1,-9.275988676E-3
3.829725046E1,-5.727277398E-1,-1.779450453E-3,4.631274939E-2
3.839731502E1,1.865777820E-1,-3.232271224E-2,4.537598491E-1
3.849738053E1,-1.353481859E-1,-9.279836714E-2,-1.130100718E-4
3.859744868E1,-4.059614837E-1,3.445811570E-1,-5.676068068E-1
3.869752776E1,6.092965603E-1,2.040821314E-1,5.460005403E-1
3.879758924E1,-3.741964996E-1,1.240587905E-1,-4.142796397E-1
3.889765632E1,-1.261852086E-1,-2.626188993E-1,-2.719480693E-1
3.899771848E1,4.852908850E-1,-1.031830832E-1,4.403208196E-1
3.909781082E1,-2.202584594E-1,4.098111764E-2,-5.325828493E-2
3.919786524E1,-3.216620684E-1,1.014089465E0,-2.444591075E-1
3.929792212E1,1.285455972E-1,-2.998816967E-1,1.220600381E-1
3.939799190E1,-3.369337022E-1,1.924756914E-1,-3.004540689E-2
3.949805908E1,1.083870381E-1,-4.947476983E-1,3.835103810E-1
3.959812376E1,-1.976564527E-1,-2.400168926E-1,-1.015166417E-1
3.969818828E1,-7.975945622E-2,-5.553559214E-2,-5.529460311E-1
3.979826230E1,2.702663243E-1,1.552129239E-1,-1.626031697E-1
3.989832934E1,1.675725542E-2,-1.306720078E-1,-2.224679589E-1
3.999839019E1,-2.281997055E-1,1.593564078E-2,-5.004116297E-1
4.009846254E1,7.168088555E-1,-9.646356106E-2,5.588286519E-1
4.019853049E1,1.725278944E-1,1.898996718E-2,3.303650916E-1
4.029859260E1,-1.744435728E-1,3.054857850E-1,-7.463857532E-2
4.039866135E1,-1.866608709E-1,-3.518052399E-1,-5.631261319E-2
4.049872277E1,-4.499437809E-1,2.034712732E-1,-1.538464148E-2
4.059879502E1,7.173512876E-2,-1.079345703E0,3.254781663E-1
4.069886747E1,-1.096918508E-1,-3.145424426E-1,-3.055456281E-1
4.080082081E1,4.987299144E-1,-1.856498867E-1,-5.077420473E-1
4.090088573E1,3.802220821E-1,-2.497907430E-1,-9.479712695E-2
4.100095301E1,-1.005288661E-1,-5.039106607E-1,-3.110434413E-1
4.110102486E1,-1.726109833E-1,2.560056746E-1,-3.293693960E-1
4.120109487E1,1.957407743E-1,-2.430712283E-1,3.596866131E-1
4.130115415E1,4.449737966E-1,-1.575500965E-1,3.034870327E-1
4.140123433E1,-1.090809852E-1,4.307131469E-1,3.266998827E-1
4.150128455E1,-1.212982833E-1,2.957119048E-1,5.942588449E-1
4.160135636E1,-1.481763572E-1,-7.874847203E-2,5.618829727E-1
4.170142467E1,3.790003359E-1,-6.883919835E-1,8.296465874E-2
4.180148902E1,-6.252621412E-1,-8.478277922E-1,-9.933798909E-1
4.190156144E1,5.323275328E-1,1.032415390E0,-3.798665479E-2
4.200162595E1,9.128281474E-2,-2.290213108E-1,-2.035311460E-1
4.210169534E1,-2.972274721E-1,-2.583428621E-1,-5.028551221E-1
4.220175779E1,-9.808541089E-2,2.456209660E-1,4.570188001E-2
4.230183630E1,1.065544412E-1,6.170270443E-1,3.938950896E-1
4.240189465E1,3.454027772E-1,8.705361485E-1,4.610902369E-1
4.250195843E1,-3.051687181E-1,2.865489423E-1,6.830389053E-2
4.260203734E1,-2.862319052E-1,2.517296374E-1,3.287371621E-2
4.270209412E1,1.553552505E-2,-1.399675570E-2,2.081920356E-1
4.280216414E1,-9.930714220E-2,1.674302220E-1,-3.886232972E-1
4.290222646E1,1.187033392E-2,-3.976201117E-1,-7.991247773E-1
4.300229411E1,3.173029423E-1,-6.897462159E-2,1.452729255E-1
4.310236716E1,2.638937731E-4,-1.001287550E-1,-4.043011367E-2
4.320243671E1,-1.915477961E-1,-7.019636035E-2,-4.093927443E-1
4.330249682E1,9.990285635E-1,-3.537703678E-2,4.720858037E-1
4.340257293E1,-2.172041386E-1,2.204429358E-2,5.058880523E-2
4.350263095E1,-4.677273333E-2,5.064604282E-1,2.051377147E-1
4.360269816E1,-5.024781823E-1,5.197669193E-2,2.126727253E-2
4.370276448E1,-5.146955252E-1,3.975938633E-2,2.442330867E-1
4.380283659E1,6.379388273E-2,-8.007912040E-1,6.443498731E-1
4.390290261E1,-7.828653455E-1,-7.390938401E-1,-4.912486672E-1
4.400296589E1,3.454027772E-1,4.270479381E-1,-4.592790082E-2
4.410303313E1,8.047734499E-1,-2.846100330E-1,1.519924253E-1
4.420310468E1,1.370977014E-1,-5.492473021E-2,-4.393251240E-1
4.430317167E1,7.173512876E-2,2.570948564E-2,-2.462916970E-1
4.440323434E1,4.755170643E-1,7.383528166E-3,3.419715166E-1
4.450329819E1,3.075291216E-1,-2.180257440E-1,2.912697196E-1
4.460336721E1,-5.721167922E-1,6.500138044E-1,-1.167882681E-1
4.470343749E1,-2.129280716E-1,5.991793796E-2,3.095956743E-1
4.480350324E1,-4.010745883E-1,8.496341854E-2,2.943240404E-1
4.490357005E1,-1.684033312E-2,-6.755638719E-1,4.195514321E-1
4.500364124E1,-4.346721470E-1,-7.085505128E-1,-8.846458793E-1
4.510371155E1,3.454027772E-1,-2.644515038E-1,-6.366345882E-1
4.520378587E1,6.679396629E-1,1.410304569E-2,-4.287357628E-2
4.530383831E1,2.530936897E-2,-3.597464859E-1,-5.291222930E-1
4.540391290E1,-1.347373128E-1,1.271131188E-1,-3.623560965E-1
4.550396938E1,1.780256778E-1,2.627251744E-1,4.476512074E-1
4.560403752E1,6.911524534E-1,3.378616273E-1,5.313397646E-1
4.570412114E1,-3.027252853E-1,3.396942019E-1,1.843682975E-1
4.580417322E1,-4.749892652E-1,3.757352531E-1,2.692785561E-1
4.590424567E1,-7.792685926E-2,-5.431386083E-2,5.282853842E-1
4.600431018E1,3.979371786E-1,-6.958549470E-2,3.767908216E-1
4.610438360E1,-6.026601195E-1,-9.919919968E-1,-8.913654089E-1
4.620444785E1,2.488860488E-1,-1.575500965E-1,-3.275367618E-1
4.630451736E1,3.631178737E-1,4.586803913E-2,1.454775594E-2
4.640457611E1,5.768522620E-2,-2.803340256E-1,-3.574691713E-1
4.650464542E1,8.273070306E-2,3.531332612E-1,-1.345033497E-1
4.660471454E1,3.080715612E-2,2.095799297E-1,3.108174205E-1
4.670477762E1,4.645214975E-1,5.260081291E-1,4.317687154E-1
4.680484924E1,-5.171389580E-1,2.382905930E-1,1.550467610E-1
4.690491168E1,-4.896500111E-1,1.881996393E-1,2.546178102E-1
4.700498370E1,-1.738326997E-1,1.234479249E-1,3.315868080E-1
4.710505295E1,1.621431857E-1,-6.958549470E-2,-2.210415900E-2
4.720511343E1,-3.320468068E-1,-4.635935724E-1,-1.195576310E0
4.730518674E1,4.217609167E-1,1.527694613E-1,-4.454337656E-1
4.740524819E1,1.859669387E-1,-7.813760638E-2,-8.563414961E-2
4.750531115E1,-1.469546407E-1,-1.575500965E-1,-3.959536850E-1
4.760539756E1,3.234116137E-1,-2.926838771E-2,-3.849580884E-1
4.770545181E1,1.212152094E-1,1.539911777E-1,-1.357250959E-1
4.780552296E1,4.485705495E-2,5.076821446E-1,-5.264742300E-2
4.790559394E1,-1.414568424E-1,2.395123094E-1,-5.325828493E-2
4.800575432E1,2.836369537E-2,2.034712732E-1,1.690966636E-1
4.810582207E1,2.800401747E-1,-4.464893639E-1,2.411787510E-1
4.820589198E1,-7.889739871E-1,-1.095228314E0,-7.838531733E-1
4.830596347E1,-2.740145922E-1,7.300370932E-1,-6.005935669E-1
4.840602242E1,2.635468245E-1,-1.783194989E-1,-3.167336341E-3
4.850608560E1,8.517416567E-2,2.815294638E-2,-1.833725870E-1
4.860616075E1,-9.808541089E-2,3.958938420E-1,-1.253403872E-1
4.870623326E1,1.016675234E-1,3.567984700E-1,2.521743178E-1
4.880629684E1,1.010566577E-1,2.496606437E-3,6.858886480E-1
4.890635729E1,-3.002817929E-1,4.294914305E-1,4.378773868E-1
4.900642587E1,-3.333369270E-2,8.374168724E-2,5.594395995E-1
4.910649572E1,3.209681511E-1,-4.947476983E-1,7.341470122E-1
4.920655853E1,1.682518274E-1,-7.386154681E-2,-2.169701755E-1
4.930662657E1,-3.967985213E-1,-4.996346235E-1,-1.004986286E0
4.940669419E1,6.806994230E-2,3.513006568E-1,-4.075601101E-1
4.950675597E1,3.160812259E-1,-6.775289774E-2,2.650024891E-1
4.960682509E1,-1.622262597E-1,8.496341854E-2,-1.235077903E-1
4.970689520E1,1.939081699E-1,1.277239770E-1,3.065413535E-1
4.980696079E1,-1.622946747E-2,3.378616273E-1,-1.334740547E-3
4.990703064E1,4.327565134E-1,7.801280618E-1,3.260890245E-1
5.000709665E1,-5.471397936E-2,5.608274341E-1,3.822886348E-1
5.010716893E1,-2.825667262E-1,-1.844281554E-1,9.161849022E-1
5.020723055E1,-3.070013225E-1,3.855091333E-1,7.231514454E-1
5.030730016E1,1.309206430E-2,2.387689054E-2,2.326266468E-1
5.040736431E1,-4.413917065E-1,-6.028708220E-1,-4.588727951E-1
5.050742999E1,-4.872065783E-1,2.395123094E-1,-2.304092050E-1
5.060750237E1,-2.141498178E-1,2.065256089E-1,4.183296859E-1
5.070757519E1,-1.927695274E-1,-4.935259819E-1,6.769303232E-2
5.080763337E1,-1.658914536E-1,8.968033195E-1,9.518197179E-2
5.090770409E1,-1.182439625E-1,2.193537802E-1,4.452077746E-1
5.100777283E1,-5.110303164E-1,5.333384871E-1,-6.547559053E-2
5.110783881E1,-3.491510451E-1,3.818439245E-1,1.251143664E-1
5.120791103E1,-3.656443655E-1,-2.681167126E-1,-1.412228793E-1
5.130796838E1,2.751532495E-1,-5.717167258E-1,2.737592533E-2
5.140803563E1,-6.815301627E-2,-2.613971829E-1,-6.364299357E-2
5.150810277E1,3.050856590E-1,3.323638439E-1,-6.604583263E-1
5.160817739E1,4.150413871E-1,3.745135367E-1,-4.717009962E-1
5.170824174E1,6.532788873E-1,5.602165461E-1,-2.640067935E-1
5.180830352E1,4.241359606E-2,6.640105275E-4,-1.057926938E-1
5.190837180E1,1.633649170E-1,-1.575500965E-1,5.789872408E-1
5.200843982E1,-2.428604662E-1,-2.193800360E-2,2.839393318E-1
5.210850680E1,-5.770037770E-1,3.378616273E-1,3.040978611E-1
5.220857138E1,-2.208693177E-1,1.410304569E-2,2.509526014E-1
5.230863973E1,-4.456677139E-1,-3.414205313E-1,2.998218238E-1
5.240870918E1,5.402003601E-2,-3.090446889E-1,2.979892194E-1
5.250877346E1,9.433714300E-2,-1.337263435E-1,-9.662972391E-2
5.260884205E1,-6.455624010E-3,2.737207711E-1,-7.154362202E-1
5.270892000E1,3.929085098E-3,-6.530943513E-2,-3.281476498E-1
5.280898224E1,-6.754214317E-2,5.376145840E-1,-9.418625385E-2
5.290904202E1,-5.654657260E-2,4.184958637E-1,-6.852991134E-2
5.300911794E1,-3.271598816E-1,4.368218184E-1,3.700713217E-1
5.310918792E1,-1.341264695E-1,4.545368850E-1,1.996399164E-1
5.320924570E1,8.799098730E-1,-4.209655896E-2,-4.283295572E-1
5.330931099E1,7.345239520E-1,-1.149595261E0,2.924914658E-1
5.340937817E1,-2.123172134E-1,3.030422926E-1,-4.906377792E-1
5.350944672E1,-7.199462056E-1,1.881996393E-1,-5.303440690E-1
5.360951053E1,7.901126742E-1,-8.911992311E-1,1.678749323E-1
5.370958478E1,-3.693095744E-1,-1.783194989E-1,-1.864269078E-1
5.380964720E1,7.919452786E-1,8.625948429E-1,1.271515992E-2
5.390971365E1,2.116232812E-1,5.840403438E-1,-1.161774099E-1
5.400978406E1,-4.616186395E-2,-4.373263419E-1,-4.710901082E-1
5.410984951E1,2.408763953E-2,-5.430060625E-1,-2.597307563E-1
5.420992256E1,1.614639163E-2,3.164813519E-1,6.614540219E-1
5.430999094E1,-1.212982833E-1,8.167799711E-1,5.056834221E-1
5.441006046E1,-3.632009327E-1,3.763461411E-1,1.984182000E-1
5.451011491E1,-2.850101590E-1,4.313240051E-1,1.660423428E-1
5.461018313E1,3.997697830E-1,-6.871702075E-1,3.828994930E-1
5.471025318E1,-2.398061454E-1,1.837910339E-2,-1.473315209E-1
5.481032186E1,-3.401297610E-3,-2.876643836E-1,-5.169050097E-1
5.491038421E1,3.753351569E-1,9.840244800E-2,-3.366997540E-1
5.501045886E1,6.196128577E-2,3.487246484E-2,-1.540510505E-1
5.511052591E1,-2.269779742E-1,2.816620171E-1,-1.955898851E-1
5.521249706E1,2.250622958E-1,-2.119171023E-1,2.460656911E-1
5.531256514E1,-1.176330969E-1,-3.401987851E-1,7.072688937E-1
5.541262862E1,-9.747454524E-2,-3.322575390E-1,2.039159834E-1
5.551269434E1,-1.304612756E-1,3.677940369E-1,6.708216667E-2
5.561276285E1,-1.390133798E-1,-5.444642156E-3,2.106354982E-1
5.571283043E1,6.453375816E-1,-9.443445206E-1,4.189405441E-1
5.581290552E1,-5.385192037E-1,-9.663357139E-1,-5.193484426E-1
5.591297210E1,2.275057733E-1,-1.111243293E-1,-5.737154484E-1
5.601304434E1,-2.031542361E-1,2.957119048E-1,-5.004116297E-1
5.611309702E1,4.058784246E-1,-3.151533306E-1,-1.247295216E-1
5.621316480E1,-3.485401571E-1,5.241755247E-1,-3.309973329E-2
5.631323675E1,1.633649170E-1,1.423847526E-1,7.390339375E-1
5.641330330E1,7.369673848E-1,8.173908591E-1,5.893719196E-1
5.651336228E1,6.623734534E-2,-1.587718129E-1,2.265179902E-1
5.661344423E1,-4.756001234E-1,2.040821314E-1,5.853005126E-2
5.671349994E1,-3.063904643E-1,5.803751349E-1,6.015892625E-1
5.681357806E1,3.441810310E-1,-4.788652062E-1,2.002507895E-1
5.691363454E1,-7.205570936E-1,-4.690913558E-1,-1.051412106E0
5.701370199E1,1.108305082E-1,2.706664503E-1,-1.945605734E-3
5.711376870E1,2.953118086E-1,-5.075758696E-1,4.201622903E-1
5.721384115E1,-7.181821018E-2,-4.833776504E-3,-4.203883111E-1
5.731390247E1,1.994059533E-1,3.806221783E-1,-2.481243014E-1
5.741397445E1,-1.292395294E-1,1.784258038E-1,2.326266468E-1
5.751403193E1,6.501560658E-2,8.906946778E-1,5.356158018E-1
5.761410945E1,-5.409626961E-1,-3.243163228E-1,5.001856089E-1
5.771417770E1,-4.652154148E-1,5.040169954E-1,3.651844263E-1
5.781423835E1,2.067363411E-1,-4.458784759E-1,2.283505797E-1
5.791430533E1,-2.996709347E-1,-1.557174921E-1,-5.022442341E-1
5.801437964E1,-2.892862260E-1,3.177030683E-1,-6.910015941E-1
5.811444492E1,4.138196707E-1,1.417738795E-1,1.116753295E-1
5.821450764E1,2.800401747E-1,-4.183895588E-1,5.058880523E-2
5.831457952E1,-2.117063403E-1,2.932684720E-1,-5.938740373E-1
5.841464090E1,3.673939109E-1,2.419557869E-1,1.440511942E-1
5.851470695E1,1.535910666E-1,-7.189352512E-1,1.458837837E-1
5.861477456E1,2.714880705E-1,8.313082159E-2,2.155224085E-1
5.871484224E1,-9.197676182E-2,-2.119171023E-1,6.708216667E-2
5.881491426E1,-2.514125705E-1,1.845344603E-1,2.081920356E-1
5.891497670E1,4.199283123E-1,-7.164917588E-1,6.003675461E-1
5.901504315E1,-5.489040017E-1,-5.955404639E-1,-7.844640017E-1
5.911511067E1,2.097906768E-1,5.553296804E-1,-2.181919068E-1
5.921518045E1,4.107653499E-1,-3.328683972E-1,5.058880523E-2
5.931524516E1,-6.998561323E-2,-2.033649683E-1,-4.662031829E-1
5.941531694E1,1.786365509E-1,6.602659076E-2,1.116753295E-1
5.951537689E1,3.215790093E-1,4.661433399E-1,3.376954794E-1
5.961544964E1,2.598816156E-1,3.195356727E-1,2.362918407E-1
5.971552726E1,-1.732218266E-1,-4.110591710E-1,5.486486107E-2
5.981558907E1,-3.601466119E-1,4.588129520E-1,-6.303212792E-2
5.991564742E1,-2.666842043E-1,-3.096555471E-1,1.739835888E-1
6.001571967E1,-4.623028450E-3,-4.147243798E-1,-7.036250830E-2
6.011579801E1,-3.387663364E-1,-2.467364222E-1,-8.663199544E-1
6.021585953E1,5.066711903E-1,3.439702690E-1,-1.729878634E-1
6.031592477E1,1.865777820E-1,-3.579138815E-1,-1.790965199E-1
6.041598406E1,-1.170222312E-1,-3.371444643E-1,-4.490989745E-1
6.051604447E1,1.291564703E-1,2.773859501E-1,-1.130100718E-4
6.061611715E1,1.651975065E-1,2.627251744E-1,4.403208196E-1
6.071619267E1,4.431411922E-1,5.773208141E-1,5.453896523E-1
6.081625205E1,-4.578850269E-1,-3.310358226E-1,-1.233031508E-2
6.091632090E1,-8.189063668E-1,1.131375551E0,1.760208048E-2
6.101639428E1,2.140667289E-1,-8.765384555E-1,2.204093486E-1
6.111645553E1,-7.487253100E-2,-5.503364205E-1,-7.551424503E-1
6.121652761E1,-4.279526472E-1,-8.111758828E-1,-8.473831415E-1
6.131658766E1,1.118758202E0,-1.239525005E-1,8.968418092E-2
6.141665464E1,-7.914859056E-2,4.655324817E-1,3.959323093E-2
6.151671639E1,9.189368039E-2,4.575912058E-1,-1.448880732E-1
6.161680760E1,1.816908717E-1,9.236813784E-1,3.425824046E-1
6.171686068E1,-7.365079969E-2,6.445159912E-1,2.204093486E-1
6.181692830E1,2.568272948E-1,6.836113334E-1,4.733075500E-1
6.191699001E1,2.965335250E-1,7.763303071E-2,5.142355561E-1
6.201705739E1,-6.179317832E-1,2.456209660E-1,1.385534108E-1
6.211713621E1,-6.754214317E-2,-6.346358657E-1,4.824705124E-1
6.221719632E1,-6.551945210E-1,-3.860137165E-1,-3.061564863E-1
6.231726627E1,1.431379374E-2,6.724832207E-2,-5.773806572E-1
6.241732782E1,6.819894910E-1,-1.789303720E-1,1.898660809E-1
6.251769022E1,7.356772572E-2,-1.630478799E-1,-4.653877020E-2
6.261776650E1,-9.014416486E-2,-8.730058372E-2,-1.345033497E-1
6.271783022E1,2.989769876E-1,3.635179698E-1,3.786234558E-1
6.281789680E1,2.213971168E-1,-2.106953561E-1,4.281035066E-1
6.291797318E1,1.071653143E-1,2.022495419E-1,1.055666804E-1
6.301803093E1,-1.115244478E-1,-1.428893209E-1,8.540812880E-2
6.311810824E1,-2.074302882E-1,-3.554704189E-1,2.918805778E-1
6.321816629E1,2.354470044E-1,-6.951115131E-1,1.086210012E-1
6.331823264E1,-4.865956903E-1,-2.485690117E-1,-1.047746897E0
6.341831022E1,-2.532451749E-1,-1.288394183E-1,-8.046225309E-1
6.351836131E1,3.979371786E-1,3.280877769E-1,7.885140181E-1
6.361843089E1,-2.013216466E-1,3.146487474E-1,3.059304953E-1
6.371850048E1,2.707354724E-3,1.032893732E-1,9.762542695E-2
6.381856822E1,5.537078381E-1,4.667541683E-1,1.165622473E-1
6.391863664E1,1.047218442E-1,1.274875714E-3,2.118572295E-1
6.401870412E1,-9.075503051E-2,6.103075147E-1,3.043025173E-2
6.411876993E1,-1.652805954E-1,-1.422784626E-1,9.151677787E-2
6.421883858E1,-1.903260648E-1,-1.435001791E-1,1.874226183E-1
6.431890456E1,1.450389624E-1,-8.020129204E-1,1.526032984E-1
6.441897777E1,-3.693095744E-1,-5.234583616E-1,-6.372454762E-1
6.451903972E1,-1.390133798E-1,1.924756914E-1,-5.822675824E-1
6.461910997E1,7.418543100E-1,4.459847808E-1,4.415425658E-1
6.471917695E1,3.307420015E-1,-3.909006119E-1,-2.731697559E-1
6.481924820E1,-1.500089616E-1,8.679601550E-2,-6.213629842E-1
6.491930811E1,3.985480368E-1,2.541730702E-1,2.839393318E-1
6.501937402E1,4.034349620E-1,-1.715999842E-1,4.140536189E-1
6.511944041E1,-1.591719389E-1,-1.331154853E-1,3.144825995E-1
6.521950919E1,-1.811630875E-1,2.456209660E-1,6.113631129E-1
6.531957524E1,-2.941731513E-1,2.065256089E-1,4.843031168E-1
6.541964995E1,2.189536542E-1,-4.269416630E-1,3.413606584E-1
6.551970396E1,-8.372323513E-1,-3.689094484E-1,-7.856857181E-1
6.561978015E1,3.521222770E-1,5.437232256E-1,3.474693000E-1
6.571984246E1,8.279863000E-1,-1.618261486E-1,7.604142427E-1
6.581991061E1,1.858985052E-2,-6.897462159E-2,1.108720433E-3
6.591998069E1,1.242695376E-1,1.350543648E-1,1.416077316E-1
6.602004684E1,4.168739915E-1,3.635179698E-1,2.979892194E-1
6.612011218E1,-8.464637399E-2,-3.212619722E-1,4.580359161E-1
6.622018530E1,-2.385844141E-1,4.478173852E-1,6.767256856E-1
6.632024638E1,-3.864138126E-1,3.836764991E-1,7.292600870E-1
6.642031373E1,-2.178149968E-1,6.602659076E-2,9.992625117E-1
6.652037488E1,1.603105962E-1,-8.363538980E-2,4.775836170E-1
6.662044799E1,-3.955767751E-1,-3.676877320E-1,-6.317476630E-1
6.672051931E1,7.381891012E-1,-6.469856948E-2,-5.509088188E-2
6.682058696E1,4.810148180E-1,4.972974658E-1,1.776487678E-1
6.692064814E1,1.041109860E-1,-1.300611645E-1,2.625590563E-1
6.702071672E1,2.347677201E-2,-3.110098280E-2,1.727618575E-1
6.712078354E1,3.655613065E-1,2.254624218E-1,2.845501900E-1
6.722085052E1,-5.745602846E-1,7.147654891E-1,2.656133771E-1
6.732092907E1,1.004457921E-1,5.437232256E-1,1.061570764E0
6.742099152E1,-1.842174083E-1,4.954648614E-1,7.097123861E-1
6.752105237E1,-9.380251169E-1,9.566680789E-1,2.478982806E-1
6.762112446E1,1.043010831E0,-1.385389328E0,9.302347302E-1
6.772118547E1,-4.132918715E-1,-1.618261486E-1,-5.957065821E-1
6.782125472E1,2.714196406E-2,-3.731855154E-1,-2.627850771E-1
6.792132004E1,5.017842650E-1,2.346253991E-1,6.040326953E-1
6.802139108E1,1.407628953E-1,-1.471653730E-1,1.391642541E-1
6.812145416E1,-6.509868801E-2,3.684048653E-1,1.147296503E-1
6.822152838E1,-2.478158101E-2,3.989481628E-1,1.519924253E-1
6.832159646E1,4.987299144E-1,6.243574023E-1,3.169260621E-1
6.842166111E1,-2.483582646E-1,1.228370592E-1,1.764270514E-1
6.852172476E1,-6.167100072E-1,1.729280055E-1,1.898660809E-1
6.862178761E1,-6.815301627E-2,-7.325068861E-2,4.818596840E-1
6.872186619E1,-8.831156790E-2,-4.515088350E-2,1.416077316E-1
6.882193497E1,-4.542198479E-1,-5.540016294E-1,-8.082877398E-1
6.892199385E1,8.756337762E-1,1.924756914E-1,7.807774097E-2
6.902206640E1,6.318301708E-2,1.411630064E-1,-2.835544646E-1
6.912212544E1,-1.182439625E-1,-4.580957890E-1,-2.780567110E-1
6.922219219E1,1.743604839E-1,2.321819514E-1,7.502341270E-2
6.932226904E1,-3.839703500E-1,2.804403007E-1,1.061775461E-1
6.942232772E1,-5.532484502E-2,1.194294691E0,5.447788239E-1
6.952239316E1,-2.520234585E-1,-1.526631564E-1,7.720206380E-1
6.962246021E1,-6.545836926E-1,3.128161728E-1,4.287143946E-1
6.972270094E1,-1.750544310E-1,-1.410567313E-1,4.207731187E-1
6.982276796E1,-5.702842474E-1,-2.668949664E-1,-3.312019706E-1
6.992283488E1,2.305600941E-1,6.908091903E-2,-4.478772283E-1
7.002290325E1,5.469883084E-1,3.158704937E-1,-9.296452999E-2
7.012296857E1,-1.048049331E-1,-3.035468757E-1,-3.171520829E-1
7.022303768E1,8.747590473E-4,-4.086156785E-1,-2.010876834E-1
7.032310376E1,1.920755804E-1,2.193537802E-1,1.049558073E-1
7.042317808E1,2.965335250E-1,-7.262656093E-1,3.505236506E-1
7.052323136E1,-1.958238482E-1,1.249272585E0,-4.348444194E-2
7.062330314E1,9.433714300E-2,7.274610549E-2,6.700061560E-1
7.072337235E1,-1.500089616E-1,3.048748970E-1,7.799619436E-1
7.082343943E1,-3.089023381E-2,-2.778905332E-1,6.638975143E-1
7.092350648E1,-9.087036252E-1,-4.666478932E-1,-4.790313840E-1
7.102358023E1,-1.568701933E-3,3.219791353E-1,-1.845943183E-1
7.112363998E1,6.862655878E-1,-4.336611927E-1,-4.226271063E-2
7.122371173E1,1.297673136E-1,-9.109833278E-3,-2.664502561E-1
7.132377448E1,1.358759701E-1,-6.592030078E-2,-3.615406156E-2
7.142384749E1,2.537729740E-1,2.346253991E-1,2.863827944E-1
7.152390544E1,-3.925224543E-1,-2.595645785E-1,1.489381045E-1
7.162397502E1,-1.756653041E-1,5.968684554E-1,4.164971113E-1
7.172404374E1,1.334325075E-1,-2.302430570E-1,6.138066053E-1
7.182410958E1,-9.380935878E-2,3.360290229E-1,5.942588449E-1
7.192418186E1,5.115581155E-1,-5.375083089E-1,7.066580653E-1
7.202424601E1,-6.118230820E-1,-6.743420959E-1,-9.157999754E-1
7.212431226E1,1.053327173E-1,-5.411734581E-1,-7.417034507E-1
7.222437958E1,3.032530546E-1,1.356652230E-1,3.409544379E-2
7.232445043E1,-6.570954621E-2,-2.681167126E-1,-2.322418094E-1
7.242451327E1,-1.017506048E-1,1.607107073E-1,-3.226498663E-1
7.252457850E1,4.773496389E-1,4.081111252E-1,2.582829893E-1
7.262464858E1,-4.310753942E-2,-3.053794801E-1,2.643916309E-1
7.272471440E1,-6.876387447E-2,3.299203813E-1,3.242564499E-1
7.282478084E1,-3.089023381E-2,1.979734749E-1,2.350701094E-1
7.292484886E1,-3.369337022E-1,3.207573891E-1,2.143006921E-1
7.302491507E1,4.712409973E-1,-9.107469320E-1,4.036689103E-1
7.312498905E1,-7.950826287E-1,-9.174664021E-1,-1.049579501E0
7.322504983E1,3.295202553E-1,3.390833437E-1,-3.012695611E-1
7.332511798E1,5.219427943E-1,-1.105134636E-1,-5.936693773E-2
7.342518696E1,7.784377784E-2,-3.292032182E-1,-2.707263231E-1
7.352524414E1,-1.493980885E-1,2.413449138E-1,-2.139158547E-1
7.362531992E1,5.646349862E-2,4.233827591E-1,3.187586367E-1
7.372538507E1,1.413737684E-1,-1.129569262E-1,6.376302838E-1
7.382546059E1,-1.225200221E-1,1.662084907E-1,6.107522845E-1
7.392551924E1,-2.483582646E-1,2.101908028E-1,2.931022942E-1
7.402558682E1,-3.124991059E-1,8.496341854E-2,3.102065325E-1
7.412565686E1,2.830945253E-1,-5.863775015E-1,2.466765493E-1
7.422572608E1,-5.763928890E-1,-3.536378145E-1,-1.069738030E0
7.432579560E1,7.357456684E-1,4.142197967E-1,-9.886854328E-3
7.442586261E1,1.951299161E-1,-2.290213108E-1,-3.000478446E-1
7.452591970E1,5.761681125E-3,-2.418494821E-1,-3.837364018E-1
7.462599708E1,-2.478158101E-2,2.993771136E-1,-1.827617139E-1
7.472607209E1,-3.822061419E-2,3.702374995E-1,2.613373101E-1
7.482612874E1,6.196128577E-2,7.385892272E-1,4.244383276E-1
7.492619735E1,3.569407761E-2,1.930865645E-1,1.672640741E-1
7.502625933E1,-1.286286712E-1,3.232008815E-1,2.161332816E-1
7.512632515E1,-2.172725461E-2,-8.058106899E-2,4.201622903E-1
7.522639673E1,-4.413917065E-1,-2.229126692E-1,-7.769289613E-2
7.532646185E1,-6.777964830E-1,-6.401336193E-1,-2.157484442E-1
7.542654006E1,6.691613197E-1,6.426833868E-1,8.418639004E-2
7.552658658E1,2.012385577E-1,3.426159918E-2,-1.900921017E-1
7.562666470E1,1.810799986E-1,-2.088627666E-1,-1.387794167E-1
7.572673651E1,1.199934855E-1,1.753714681E-1,-6.914078444E-2
7.582679433E1,-4.933152199E-1,5.919815898E-1,-3.615406156E-2
7.592686970E1,1.841343343E-1,8.399928808E-1,4.152753651E-1
7.602693172E1,7.051339746E-2,-5.981164798E-2,4.067232311E-1
7.612700730E1,-2.691276968E-1,4.252153635E-1,2.986001074E-1
7.622706262E1,5.768522620E-2,-3.756289780E-1,3.859538138E-1
7.632713280E1,-5.354648829E-1,-1.410567313E-1,-4.209991693E-1
7.642719855E1,-2.611864209E-1,2.914358377E-1,-6.195303798E-1
7.652726086E1,4.174848497E-1,8.068735152E-2,8.479725569E-2
7.662733848E1,2.226188332E-1,-8.974404633E-2,-1.721723750E-2
7.672741416E1,3.630494326E-2,-6.164424494E-2,-6.280824542E-1
7.682746534E1,1.737496257E-1,4.098111764E-2,-3.778201528E-3
7.692753605E1,-7.731599361E-2,-9.217424989E-1,8.428810239E-1
7.702768485E1,-2.251453847E-1,5.503101647E-2,2.283505797E-1
7.712775544E1,4.913311452E-2,-3.171184659E-2,3.529671133E-1
7.722781478E1,-2.581321001E-1,9.216123261E-3,1.562684923E-1
7.732788753E1,1.151065603E-1,-4.251090586E-1,9.457110614E-2
7.742794868E1,-4.719349444E-1,-4.739782810E-1,-4.607053995E-1
7.752801506E1,8.334156871E-2,1.820909828E-1,-1.992550790E-1
7.762808287E1,5.030059814E-1,1.349218097E-2,5.869284868E-1
7.772815049E1,-1.439003050E-1,-1.705108024E-2,1.943467744E-2
7.782822530E1,-2.764580548E-1,1.936974376E-1,-3.293693960E-1
7.792828392E1,1.438172311E-1,4.197175503E-1,-1.241186559E-1
7.802835604E1,3.460136056E-1,-1.587718129E-1,4.769727588E-1
7.812841969E1,4.363532737E-2,3.677940369E-1,5.624939203E-1
7.822848503E1,2.042244747E-2,-3.232271224E-2,3.938950896E-1
7.832855345E1,-2.856210470E-1,2.230189741E-1,3.761799932E-1
7.842862070E1,2.250622958E-1,-4.452676177E-1,1.361099333E-1
7.852868608E1,-6.808508039E-1,-1.156314850E0,-1.181526423E0
7.862875270E1,4.162631333E-1,1.497151405E-1,-4.545967281E-1
7.872882995E1,4.529150426E-1,-1.019613519E-1,-1.509967148E-1
7.882889409E1,1.267129928E-1,-7.928498983E-1,-3.990080357E-1
7.892895568E1,-3.155534267E-1,3.323638439E-1,-1.485532671E-1
7.902902276E1,9.433714300E-2,2.346253991E-1,5.991458297E-1
7.912909004E1,4.559693635E-1,1.006759048E0,5.252310634E-1
7.922915729E1,-3.015035391E-1,1.057328358E-1,2.491200119E-1
7.932922580E1,-1.720001101E-1,4.704193771E-1,4.299361408E-1
7.942929208E1,-2.843993306E-1,-1.923694015E-1,3.419715166E-1
7.952935933E1,-6.423663497E-1,7.335697114E-2,-4.216100276E-1
7.962942945E1,4.241359606E-2,-5.326213241E-1,-4.692575037E-1
7.972949463E1,5.928031802E-1,6.096966267E-1,3.552181413E-3
7.982956634E1,9.494800866E-2,-4.354937673E-1,-3.965645432E-1
7.992962616E1,-1.023614630E-1,-3.389770389E-1,-6.274716258E-1
8.002969328E1,2.091798037E-1,1.265022457E-1,-2.976043820E-1
8.012976049E1,-3.277707398E-1,-3.110098280E-2,1.990290582E-1
8.022982880E1,1.871886551E-1,4.801932275E-1,6.046435833E-1
8.032989538E1,5.646349862E-2,1.955300272E-1,5.808198452E-1
8.042997376E1,-1.573393345E-1,4.655324817E-1,5.441679358E-1
8.053003031E1,3.508321196E-2,-4.574849308E-1,3.932842016E-1
8.063009433E1,-8.751060367E-1,-3.145424426E-1,-5.950957537E-1
8.073016548E1,-4.426133931E-1,-3.634116948E-1,-6.610692143E-1
8.083023176E1,7.009263039E-1,4.551477730E-1,3.596866131E-1
8.093030384E1,-6.875703931E-1,2.242406905E-1,-8.205050230E-1
8.103036822E1,9.861319512E-2,-2.864426672E-1,-5.279005766E-1
8.113043163E1,1.273238659E-1,8.740687370E-2,4.152753651E-1
8.123050092E1,-8.892243356E-2,5.950359106E-1,4.659771621E-1
8.133057870E1,-7.487253100E-2,3.928395212E-1,4.549815953E-1
8.143064748E1,3.912176490E-1,-1.929802746E-1,8.117269278E-1
8.153069653E1,-6.875703931E-1,8.192234635E-1,2.405679077E-1
8.163076581E1,5.060603023E-1,-4.574849308E-1,3.395280838E-1
8.173084357E1,-6.936790347E-1,-1.222899079E0,-1.049579501E0
8.183091015E1,3.221898675E-1,4.844692945E-1,5.384777207E-3
8.193097180E1,5.201102495E-1,-4.416024089E-1,1.800922453E-1
8.203103611E1,2.128449976E-1,-7.708587646E-1,-3.250933290E-1
8.213110576E1,-1.524524242E-1,3.836764991E-1,-4.710901082E-1
8.223118134E1,-1.793304831E-1,2.181320339E-1,1.697075367E-1
8.233124025E1,4.321456254E-1,8.198342919E-1,4.812487960E-1
8.243130579E1,-3.822061419E-2,1.326109022E-1,1.434403211E-1
8.253136391E1,-1.726109833E-1,4.557586014E-1,3.547996879E-1
8.263144386E1,-1.225200221E-1,-5.491147041E-1,3.657952547E-1
8.273150531E1,-8.573909402E-1,2.303493470E-1,-5.364527106E-1
8.283158459E1,-2.850101590E-1,-2.455146760E-1,-8.565461040E-1
8.293164084E1,9.587115049E-1,8.679601550E-2,3.047087491E-1
8.303171102E1,-1.793304831E-1,-1.251742393E-1,-3.507496715E-1
8.313177297E1,-7.853771746E-2,-2.589536905E-1,-4.759770632E-1
8.323184729E1,4.539950285E-3,-1.080700010E-1,-2.310200632E-1
8.333191510E1,-1.493980885E-1,-2.693384290E-1,-1.064035669E-1
8.343198165E1,1.425954849E-1,3.830656409E-1,7.991033792E-2
8.353203663E1,4.852224886E-2,-1.441110522E-1,3.043025173E-2
8.363210952E1,-4.096266925E-1,2.498970330E-1,2.424004972E-1
8.373218823E1,-2.752363384E-1,-6.297488809E-1,4.152753651E-1
8.383225098E1,-7.663720250E-1,-4.471002221E-1,-6.439649463E-1
8.393231916E1,8.816007525E-3,7.091351599E-2,-6.525170803E-1
8.403237788E1,1.117536426E0,1.747606099E-1,2.790524065E-1
8.413244819E1,1.028892547E-1,-1.105134636E-1,-3.702973723E-1
8.423252738E1,-2.110954672E-1,-6.164424494E-2,-5.028551221E-1
8.433279712E1,2.244514376E-1,1.069545671E-1,2.265179902E-1
8.443285694E1,2.347677201E-2,-4.538197219E-1,2.356809676E-1
8.453292108E1,1.896321326E-1,5.930707604E-2,1.471055150E-1
8.463299650E1,1.719170213E-1,-1.942019910E-1,-6.975165009E-2
8.473306125E1,-2.233127952E-1,2.786076963E-1,9.701456130E-2
8.483312407E1,2.286590822E-2,-7.794108987E-1,1.782596409E-1
8.493319298E1,-1.104180455E0,-1.206405759E0,-1.028810024E0
8.503325910E1,6.935959458E-1,5.461666584E-1,2.371073514E-2
8.513333121E1,7.186414003E-1,-4.697022438E-1,-3.187800199E-2
8.523339403E1,-1.927695274E-1,-6.286597252E-2,-5.205702186E-1
8.533346194E1,-2.752363384E-1,-5.444642156E-3,-5.578330159E-1
8.543352752E1,9.616973996E-2,3.592419028E-1,1.587119550E-1
8.553358594E1,6.154052019E-1,5.217320323E-1,4.891900718E-1
8.563366059E1,-1.103027165E-1,6.066423059E-1,4.195514321E-1
8.573373754E1,-3.644226789E-1,3.164813519E-1,4.952987134E-1
8.583379565E1,-2.184258550E-1,-2.668949664E-1,6.009783745E-1
8.593386220E1,-1.103027165E-1,-1.251742393E-1,-1.265621185E-1
8.603393591E1,-3.155534267E-1,-8.258366585E-1,-7.649163008E-1
8.613400153E1,6.190703511E-1,5.467775464E-1,-5.631261319E-2
8.623406375E1,1.743604839E-1,-2.125279605E-1,-4.069492519E-1
8.633413536E1,-2.697385550E-1,-4.128917456E-1,-7.062732577E-1
8.643419787E1,2.079580873E-1,7.396784425E-2,-2.821280994E-2
8.653426496E1,-4.616186395E-2,-4.904716611E-1,1.953638643E-1
8.663433087E1,-1.884934753E-1,1.168638349E0,-6.221662741E-3
8.673439888E1,1.829126030E-1,-5.197931528E-1,3.102065325E-1
8.683447263E1,-2.526343167E-1,4.160523713E-1,1.800922453E-1
8.693453344E1,-2.783590741E-2,-2.504016161E-1,1.831465662E-1
8.703461009E1,-6.228186488E-1,1.784258038E-1,-3.226498663E-1
8.713466767E1,1.896321326E-1,-1.050156802E-1,-4.613162875E-1
8.723473939E1,7.100892663E-1,5.541079044E-1,1.623771489E-1
8.733480386E1,-3.272282705E-2,-3.670768738E-1,-3.391432166E-1
8.743488001E1,-3.662552536E-1,-1.893150806E-1,-5.450048447E-1
8.753492929E1,-1.787196249E-1,2.162994444E-1,-1.326707602E-1
8.763500551E1,-8.220291138E-2,-3.206511140E-1,-3.554319218E-2
8.773507776E1,5.707436055E-2,3.482463360E-1,-2.016985416E-1
8.783514258E1,-3.401297610E-3,1.265022457E-1,-2.737806439E-1
8.793521009E1,1.230478063E-1,-1.033156365E-2,-1.782810129E-2
8.803527494E1,3.454027772E-1,-1.004209280E0,-1.082361639E-1
8.813533882E1,-4.200113714E-1,-8.783711195E-1,-7.875183225E-1
8.823540930E1,-2.831775844E-1,-5.668298006E-1,-1.094783545E0
8.833547381E1,3.594526649E-1,2.645578086E-1,-3.318128288E-1
8.843554483E1,1.157174259E-1,-8.380539417E-1,-3.733516932E-1
8.853559958E1,-2.080411464E-1,-9.890703112E-2,-7.630836964E-1
8.863567893E1,2.556055486E-1,4.203284383E-1,-8.319067955E-2
8.873574131E1,4.626888633E-1,-5.558342338E-1,3.028761744E-1
8.883581492E1,-2.263671160E-1,3.647396863E-1,1.416077316E-1
8.893587600E1,-2.477473915E-1,2.498970330E-1,2.625590563E-1
8.903594335E1,-4.005321115E-2,-1.465545148E-1,2.735546231E-1
8.913601666E1,-1.677240431E-1,-3.011034131E-1,-1.173991412E-1
8.923608444E1,-5.195824504E-1,1.839235872E-1,-8.107311726E-1
8.933614730E1,6.978719831E-1,1.845344603E-1,4.134427607E-1
8.943621558E1,3.447918892E-1,-1.679348052E-1,-1.290055662E-1
8.953627212E1,-1.256427635E-2,-2.730036378E-1,-7.087166905E-1
8.963634720E1,8.322623372E-1,-3.579138815E-1,6.889429688E-1
8.973641828E1,-1.310721338E-1,6.549006701E-1,2.008616477E-1
8.983648337E1,2.299492210E-1,2.676121294E-1,5.172898769E-1
8.993654718E1,-2.098737508E-1,6.830005050E-1,4.091667235E-1
9.003661373E1,-8.586810529E-2,4.606455266E-1,7.396447659E-1
9.013668354E1,8.951814771E-1,-1.110499859E0,8.624287248E-1
9.023675486E1,6.398397684E-1,-2.919404209E-1,-2.188027650E-1
9.033682811E1,-1.175651789E0,-2.010540850E-2,-1.359288216E0
9.043688342E1,-4.817087650E-1,6.805570126E-1,-2.548438013E-1
9.053694444E1,2.928683460E-1,-8.319453001E-1,2.680568099E-1
9.063702203E1,-2.306431681E-1,2.859380841E-1,7.502341270E-2
9.073710201E1,-3.002817929E-1,6.634528041E-1,7.891249061E-1
9.083715119E1,1.713061631E-1,7.007156014E-1,9.338999391E-1
9.093722071E1,-2.135389447E-1,3.794004619E-1,6.645083427E-1
9.103728589E1,-2.159824073E-1,5.400580168E-1,8.587635756E-1
9.113736034E1,2.812618911E-1,-2.560319565E-2,9.473389983E-1
9.123742028E1,-3.381554484E-1,-2.540667951E-1,-5.386915058E-2
9.133748793E1,-6.539728045E-1,-1.080700010E-1,-4.729227126E-1
9.143756549E1,8.420361876E-1,4.514825642E-1,4.317687154E-1
9.153761527E1,1.456498206E-1,5.550932605E-3,-5.737154484E-1
9.163781203E1,2.079580873E-1,-7.752674073E-2,-4.381034076E-1
9.173787301E1,2.830945253E-1,1.765931994E-1,9.090591222E-2
9.183794753E1,-7.426166534E-2,6.390181780E-1,3.731256425E-1
9.193800908E1,-1.225200221E-1,-8.730058372E-2,3.193694949E-1
9.203808142E1,-7.731599361E-2,1.906431019E-1,2.393461615E-1
9.213814500E1,-1.090809852E-1,4.111654758E-1,4.934661090E-1
9.223822038E1,1.450389624E-1,1.349218097E-2,5.692133904E-1
9.233827593E1,1.315999180E-1,-8.227823377E-1,1.507707089E-1
9.243835081E1,-8.256258965E-1,-3.823485076E-1,-1.047746897E0
9.253840246E1,-1.084701270E-1,1.222261935E-1,-2.731697559E-1
9.263847678E1,7.009263039E-1,7.457870245E-2,7.390339375E-1
9.273854453E1,4.767388105E-1,-1.068482772E-1,1.690966636E-1
9.283861601E1,1.334325075E-1,4.129980505E-1,-3.006587327E-1
9.293867892E1,1.615323126E-1,7.727976441E-1,-1.660637185E-2
9.303874593E1,6.893199086E-1,9.046120197E-2,6.095305085E-1
9.313881715E1,-1.744435728E-1,3.718336811E-3,8.907331526E-2
9.323889003E1,-8.098118752E-2,2.230189741E-1,3.175369203E-1
9.333895687E1,2.586598694E-1,-7.201569676E-1,7.255949378E-1
9.343902106E1,-4.615502357E-1,-1.441110522E-1,-2.462916970E-1
9.353908067E1,-1.640588492E-1,-2.009215206E-1,-6.329694390E-1
9.363915762E1,-1.994890422E-1,2.126342505E-1,-6.119953468E-2
9.373921634E1,7.784377784E-2,2.767751217E-1,2.625590563E-1
9.383928338E1,3.331854641E-1,-4.067831039E-1,-2.200245112E-1
9.393934973E1,1.377085745E-1,-6.225510687E-2,-4.521532953E-1
9.403941745E1,-9.319848567E-2,9.779158980E-2,2.460656911E-1
9.413948669E1,-1.012081560E-2,6.066423059E-1,3.065413535E-1
9.423955184E1,-3.070013225E-1,6.310769916E-1,1.373316646E-1
9.433962629E1,-4.462786019E-1,2.871598303E-1,6.040326953E-1
9.443968493E1,1.450389624E-1,-8.594342470E-1,4.977421463E-1
9.453974768E1,-7.297201157E-1,-7.061070800E-1,-7.594185472E-1
9.463982043E1,2.812618911E-1,-1.318937540E-1,-8.624500781E-2
9.473988679E1,5.140016079E-1,7.941779494E-1,2.387353033E-1
9.483995443E1,2.830945253E-1,-1.587718129E-1,-9.418625385E-2
9.494002071E1,-8.770070225E-2,4.007807374E-1,-5.169050097E-1
9.504009506E1,-4.799446091E-2,-6.376901865E-1,1.904769391E-1
9.514015634E1,1.340433806E-1,9.120749235E-1,2.424004972E-1
9.524022529E1,-1.420677006E-1,2.876381204E-2,3.409544379E-2
9.534028950E1,-1.530632824E-1,5.040169954E-1,2.723328769E-1
9.544035792E1,-1.622946747E-2,2.082256228E-2,3.780125678E-1
9.554042147E1,-3.943550289E-1,-2.778905332E-1,-1.754313409E-1
9.564049295E1,-4.774327278E-1,-7.439807057E-1,-6.036478877E-1
9.574056347E1,8.670816422E-1,6.952177882E-1,3.816777766E-1
9.584062501E1,3.441810310E-1,-2.804665640E-2,-5.509088188E-2
9.594070276E1,1.920755804E-1,-1.551066339E-1,-2.090289295E-1
9.604076028E1,-1.646697223E-1,6.161797326E-3,-3.049347401E-1
9.614083236E1,-6.509184837E-1,8.540427685E-1,9.823630005E-2
9.624089708E1,6.209029555E-1,2.651686668E-1,9.864344001E-1
9.634096699E1,-2.092628777E-1,4.624781609E-1,2.845501900E-1
9.644103201E1,-2.165932655E-1,1.118414849E-1,4.085558355E-1
9.654109079E1,-1.738326997E-1,-5.228475332E-1,3.664061427E-1
9.664117207E1,-7.346069813E-1,-6.523509622E-1,-3.373106420E-1
9.674123885E1,2.666011453E-1,-4.580957890E-1,-8.054258302E-3
9.684129770E1,8.872402310E-1,5.370036960E-1,1.452729255E-1
9.694136412E1,-8.403550833E-2,4.142197967E-1,-5.669959784E-1
9.704143060E1,-3.363228440E-1,-2.601754367E-1,-9.139674306E-1
9.714150548E1,-3.333369270E-2,-4.148568958E-2,-2.469025701E-1
9.724157192E1,4.675758183E-1,2.608925998E-1,5.435570478E-1
9.734163254E1,-1.457328945E-1,3.751244247E-1,2.320157737E-1
9.744169902E1,-3.522053659E-1,5.345602632E-1,7.502341270E-2
9.754175867E1,-9.197676182E-2,-7.277237717E-3,2.595047355E-1
9.764183685E1,-4.623028450E-3,-5.637754798E-1,1.043449491E-1
9.774191006E1,-9.826182723E-1,-4.544306099E-1,-7.862965465E-1
9.784197144E1,2.286590822E-2,3.916177750E-1,-1.143448129E-1
9.794203882E1,4.516932964E-1,2.876381204E-2,6.036264822E-2
9.804210277E1,-8.770070225E-2,-2.119171023E-1,-4.448229074E-1
9.814217708E1,-1.555067450E-1,1.808692664E-1,-3.971754014E-1
9.824224183E1,1.004457921E-1,-1.801521033E-1,3.725148141E-1
9.834230305E1,2.580490410E-1,6.713940501E-1,6.700061560E-1
9.844237340E1,5.524176359E-2,-2.949947715E-1,6.730604768E-1
9.854243165E1,-3.076121807E-1,6.536789536E-1,4.458186328E-1
9.864250260E1,-9.014416486E-2,7.274610549E-2,5.160681009E-1
9.874257442E1,-2.336974889E-1,-4.672587514E-1,-4.348444194E-2
9.884258914E1,-7.040637136E-1,-4.073939919E-1,-8.345549107E-1
9.894265965E1,8.279863000E-1,4.319348633E-1,2.607264519E-1
9.904272417E1,2.446099818E-1,-4.833776504E-3,-3.446410298E-1
9.914279155E1,-4.188580811E-2,-5.863775015E-1,-6.702321768E-1
9.924286890E1,-2.288105786E-1,1.967517585E-1,-4.906377792E-1
9.934292634E1,2.592023462E-2,-3.096555471E-1,2.381244302E-1
9.944299212E1,2.769858539E-1,1.179501340E-1,4.824705124E-1
9.954305314E1,-3.277707398E-1,6.151944399E-1,5.197333097E-1
9.964313236E1,-6.509868801E-2,4.270479381E-1,6.974951029E-1
9.974319317E1,3.447234631E-2,-7.989585996E-1,3.236455619E-1
9.984326608E1,-9.331381917E-1,-1.025722101E-1,-1.096005201E0
9.994333393E1,-1.084701270E-1,4.166632295E-1,-3.043239117E-1
1.000433959E2,9.721505046E-1,-1.766194776E-2,8.648722172E-1
1.001434672E2,-2.892862260E-1,-7.277237717E-3,-2.047528625E-1
1.002435350E2,1.688627005E-1,-6.775289774E-2,-1.412228793E-1
1.003435984E2,1.413737684E-1,4.386543930E-1,5.914091691E-2
1.004436678E2,7.510172725E-1,5.651035309E-1,3.828994930E-1
1.005437286E2,-2.911188304E-1,2.596708536E-1,-7.158424705E-2
1.006438021E2,-4.377264977E-1,4.368218184E-1,3.376954794E-1
1.007438710E2,4.217609167E-1,-5.411734581E-1,9.082435966E-1
1.008439333E2,-7.365079969E-2,-4.698347673E-2,-3.562474251E-1
1.009440029E2,-6.136556864E-1,-3.175967634E-1,-1.212069750E0
1.010440657E2,2.018494308E-1,1.837910339E-2,-1.595488489E-1
1.011441352E2,1.407628953E-1,1.668193489E-1,-9.113193303E-2
1.012442027E2,2.580490410E-1,-4.086156785E-1,-5.395070314E-1
1.013442720E2,-4.371840134E-2,2.144668400E-1,-4.533750415E-1
1.014443424E2,7.051339746E-2,1.796475202E-1,3.480801582E-1
1.015443942E2,5.934140682E-1,1.723171324E-1,6.516802311E-1
1.016444706E2,-1.414568424E-1,2.627251744E-1,2.430113554E-1
1.017445459E2,-3.430424035E-1,-1.373915374E-1,4.653663039E-1
1.018446038E2,4.553584754E-1,3.181813657E-2,4.952987134E-1
1.019446704E2,-5.232475996E-1,-6.315815449E-1,-4.735335708E-1
1.020447393E2,-8.464637399E-2,-1.667130738E-1,-2.004768103E-1
1.021448101E2,2.482751757E-1,1.588781178E-1,2.179658860E-1
1.022448829E2,7.723291963E-2,-2.595645785E-1,-4.552076161E-1
1.023449422E2,-1.121353135E-1,4.647890478E-2,-5.382852554E-1
1.024450053E2,-1.475654840E-1,4.533151686E-1,-1.253403872E-1
1.025450710E2,4.071001709E-1,-1.355589479E-1,8.031747937E-1
1.026451449E2,-4.127494246E-2,3.244225681E-1,4.482620955E-1
1.027452117E2,-3.106665015E-1,2.065256089E-1,3.987819850E-1
1.028452807E2,-2.483582646E-1,1.234479249E-1,3.431932628E-1
1.029453528E2,4.132088125E-1,-7.317634225E-1,1.996399164E-1
1.030454153E2,-8.952645063E-1,-2.284104675E-1,-9.206869602E-1
1.031454847E2,-2.801232636E-1,1.717062891E-1,1.642097533E-1
1.032455471E2,6.893199086E-1,1.478825361E-1,9.021349549E-1
1.033456101E2,9.678059816E-2,-5.577199627E-4,1.943467744E-2
1.034456844E2,-3.387663364E-1,3.873417079E-1,-4.655923247E-1
1.035457422E2,3.142486215E-1,8.374168724E-2,7.353687882E-1
1.036458093E2,1.072943211E0,-2.345191091E-1,5.881502032E-1
1.037458806E2,-5.079759955E-1,6.426833868E-1,-4.790313840E-1
1.038459534E2,-2.697385550E-1,4.905779362E-1,9.090591222E-2
1.039460127E2,-8.037031442E-2,-4.751999974E-1,5.973131657E-1
1.040460808E2,1.438172311E-1,-1.819846928E-1,3.444149792E-1
1.041461474E2,-7.046746016E-1,-3.670768738E-1,-1.469854712E0
1.042462305E2,2.659902573E-1,-3.591356277E-1,-7.068840861E-1
1.043462817E2,5.207210779E-1,1.772040725E-1,4.325842112E-2
1.044463472E2,1.761930883E-1,-4.348829091E-1,-2.102506608E-1
1.045464103E2,-6.693128496E-2,1.521585882E-1,-5.309548974E-1
1.046464819E2,-4.616186395E-2,-1.606044173E-1,-1.660637185E-2
1.047465522E2,2.977552712E-1,6.011445522E-1,2.961566448E-1
1.048466287E2,-1.347373128E-1,1.863670498E-1,4.268818200E-1
1.049466888E2,-2.141498178E-1,7.770737410E-1,5.692133904E-1
1.050467558E2,1.713061631E-1,-5.039106607E-1,7.909574509E-1
1.051468194E2,-6.350359321E-1,2.981553972E-1,-2.701154351E-1
1.052468909E2,-4.090158045E-1,-4.605392516E-1,-6.708430648E-1
1.053469519E2,1.621431857E-1,1.949191540E-1,-3.861798346E-1
1.054470194E2,3.631178737E-1,-2.247452736E-1,-3.031021655E-1
1.055470870E2,6.623734534E-2,-4.959694147E-1,-6.671778560E-1
1.056471539E2,1.865777820E-1,-1.215090379E-1,-1.503858715E-1
1.057472200E2,4.327565134E-1,-1.673239321E-1,5.282853842E-1
1.058472902E2,2.360578775E-1,5.846511722E-1,4.763618708E-1
1.059473552E2,-2.269779742E-1,4.301022589E-1,2.882153988E-1
1.060492498E2,-1.206874251E-1,2.450101078E-1,5.386701822E-1
1.061493162E2,-3.192186356E-1,-8.241366595E-2,2.088029087E-1
1.062493919E2,-7.394939065E-1,-6.004273891E-1,-8.015682101E-1
1.063494526E2,2.897455916E-2,-2.571211159E-1,-6.195303798E-1
1.064495194E2,4.474172592E-1,-1.827281155E-2,-2.481243014E-1
1.065495827E2,2.201753855E-1,-1.318937540E-1,-2.511786222E-1
1.066496497E2,-2.886753678E-1,-6.042251736E-2,-6.946668029E-1
1.067497218E2,-2.361409664E-1,4.227718711E-1,-3.061564863E-1
1.068497905E2,4.223717749E-1,-8.667646646E-1,1.112883449E0
1.069498514E2,-5.036998987E-1,1.098999739E0,1.984182000E-1
1.070499228E2,1.614639163E-2,3.134270012E-1,7.579707503E-1
1.071500090E2,1.425954849E-1,-2.711710334E-1,4.873574376E-1
1.072500529E2,-8.770070225E-2,-5.637754798E-1,-3.167336341E-3
1.073501198E2,-1.031487584E0,-4.849738479E-1,-1.163811326E0
1.074501898E2,3.563983440E-1,2.509861998E-2,-2.218571007E-1
1.075502499E2,7.400217056E-1,-4.820520803E-2,1.703183949E-1
1.076503255E2,-1.237417534E-1,-3.560813069E-1,-6.433541179E-1
1.077503962E2,-5.110303164E-1,3.280877769E-1,-4.436011612E-1
1.078504573E2,5.952466726E-1,6.524572372E-1,9.430629015E-1
1.079505226E2,6.630526781E-1,2.792185545E-1,5.912045240E-1
1.080505905E2,-1.665023267E-1,3.293095231E-1,3.248673081E-1
1.081506584E2,-2.202584594E-1,3.311421275E-1,5.215659142E-1
1.082507257E2,-5.085868239E-1,-3.224837184E-1,3.828994930E-1
1.083507914E2,-3.900790215E-1,-7.080721855E-2,4.753447697E-2
1.084508584E2,1.670301110E-1,-2.119171023E-1,-3.660213053E-1
1.085509197E2,-1.084701270E-1,5.136582628E-2,-1.375577003E-1
1.086509952E2,-1.121353135E-1,-1.538849026E-1,-3.617452383E-1
1.087510623E2,1.994059533E-1,-5.723275542E-1,-1.418337375E-1
1.088511315E2,3.411267102E-1,5.686361343E-2,1.562684923E-1
1.089511963E2,4.602454305E-1,-2.284104675E-1,6.938298941E-1
1.090512624E2,-1.610045284E-1,9.132966995E-1,2.912697196E-1
1.091513300E2,-2.178149968E-1,3.824548125E-1,3.602974713E-1
1.092514005E2,-3.754182458E-1,2.517296374E-1,5.853005126E-2
1.093514696E2,-1.585610658E-1,-2.125279605E-1,4.631274939E-2
1.094515317E2,-5.238584876E-1,-4.617609978E-1,-7.435359955E-1
1.095515911E2,5.653142929E-1,-2.070301622E-1,-5.462265611E-1
1.096516702E2,3.124160469E-1,2.517296374E-1,-5.753434449E-2
1.097517375E2,1.651975065E-1,4.403544217E-2,-7.708203048E-2
1.098517977E2,4.668965191E-2,3.177030683E-1,-1.247295216E-1
1.099518763E2,-2.636298835E-1,9.334552884E-1,7.502341270E-2
1.100519346E2,2.592707574E-1,-6.666372530E-3,4.342121780E-1
1.101520003E2,-1.536741555E-1,4.032242000E-1,2.326266468E-1
1.102520793E2,-3.638117909E-1,2.004169524E-1,2.330451040E-3
1.103521337E2,4.009914994E-1,-2.192474753E-1,3.505236506E-1
1.104522012E2,3.935926780E-2,-2.119171023E-1,-1.619922966E-1
1.105522609E2,-5.299671888E-1,-3.939549327E-1,-9.530628324E-1
1.106523405E2,-1.622262597E-1,-2.754470706E-1,-1.039600968E-1
1.107524104E2,1.755822152E-1,1.875887811E-1,1.550467610E-1
1.108524687E2,2.965335250E-1,-2.864426672E-1,-2.450699806E-1
1.109525392E2,-1.390133798E-1,-3.560813069E-1,-3.116542995E-1
1.110526069E2,1.797898673E-2,1.014567763E-1,2.259071320E-1
1.111526784E2,2.708771825E-1,-4.576174915E-2,8.538765907E-1
1.112527443E2,-7.975261211E-1,6.005336642E-1,1.947530061E-1
1.113528129E2,-3.822061419E-2,1.222261935E-1,9.302347302E-1
1.114528824E2,6.745906919E-2,-1.783194989E-1,9.640370309E-2
1.115529322E2,-4.701023698E-1,-1.071404576E0,-1.215124011E0
1.116530177E2,7.295685261E-2,-1.874824762E-1,-7.062732577E-1
1.117530737E2,4.376434088E-1,1.466607898E-1,-1.326707602E-1
1.118531417E2,2.733206451E-1,-3.463074267E-1,-1.650466323E-1
1.119532169E2,1.529802084E-1,-2.785013914E-1,-3.782385886E-1
1.120532739E2,9.426872246E-3,5.418906212E-1,-9.357539564E-2
1.121533420E2,6.367854476E-1,-2.865752019E-2,4.067232311E-1
1.122534188E2,-4.340613186E-1,-9.035491198E-2,2.478982806E-1
1.123534747E2,-3.613683283E-1,3.140378594E-1,5.087377429E-1
1.124535463E2,1.352651119E-1,-3.965309635E-2,7.103232145E-1
1.125536152E2,-1.689457893E-1,2.387689054E-2,-1.754313409E-1
1.126536840E2,-7.993587255E-1,-5.827122927E-1,-7.710249424E-1
1.127537441E2,1.627540439E-1,6.909416914E-1,-1.660637185E-2
1.128538131E2,4.168739915E-1,1.277239770E-1,2.081920356E-1
1.129538822E2,2.953118086E-1,-3.090446889E-1,-2.249114215E-1
1.130539493E2,2.225504257E-2,1.374978125E-1,-3.177629411E-1
1.131540236E2,-1.684033312E-2,1.851453036E-1,3.028761744E-1
1.132540797E2,-2.000999004E-1,3.604636490E-1,2.650024891E-1
1.133548259E2,-3.509836197E-1,2.981553972E-1,8.785158396E-2
1.134548997E2,-1.988781691E-1,1.093980223E-1,1.721509844E-1
1.135549630E2,5.402003601E-2,-4.306068420E-1,2.065640874E-2
1.136550259E2,-6.203751564E-1,-2.387951612E-1,-7.887400389E-1
1.137550941E2,-6.570954621E-2,-5.875992179E-1,-3.745734096E-1
1.138551614E2,9.311541170E-2,7.337023020E-1,1.238926351E-1
1.139552327E2,3.063073754E-1,-2.284104675E-1,2.375135720E-1
1.140553006E2,-5.055325031E-1,-1.422784626E-1,-6.317476630E-1
1.141553635E2,-4.738359526E-2,-9.720697999E-3,-1.721723750E-2
1.142554363E2,5.182776451E-1,4.020024836E-1,2.998218238E-1
1.143555089E2,-3.271598816E-1,2.688338757E-1,1.379425377E-1
1.144555630E2,-4.494013637E-2,4.301022589E-1,5.490548611E-1
1.145556239E2,1.462606788E-1,1.949191540E-1,5.062943101E-1
1.146556961E2,-2.880645096E-1,8.068735152E-2,-4.045057893E-1
1.147557667E2,-5.690624714E-1,-1.300611645E-1,-8.315005898E-1
1.148558325E2,3.698373735E-1,-3.354444355E-2,4.580359161E-1
1.149558996E2,1.884103864E-1,1.564346403E-1,2.081920356E-1
1.150559661E2,9.128281474E-2,-1.428893209E-1,-2.695045769E-1
1.151560364E2,3.374615312E-1,3.781787455E-1,2.330451040E-3
1.152561047E2,4.437520802E-1,-4.776434600E-1,2.167441547E-1
1.153561677E2,-5.654657260E-2,4.270479381E-1,2.271288633E-1
1.154562357E2,-2.837884426E-1,-1.373915374E-1,9.334937483E-2
1.155562962E2,-2.184258550E-1,1.637650281E-1,2.026942372E-1
1.156563702E2,6.623734534E-2,-3.536378145E-1,4.983530343E-1
1.157564433E2,-5.721167922E-1,-3.542487025E-1,-7.496446371E-1
1.158565029E2,9.426872246E-3,1.203936040E-1,-7.068840861E-1
1.159565701E2,7.345239520E-1,-1.386132687E-1,8.662985265E-2
1.160566375E2,2.812618911E-1,-1.398349851E-1,-1.913138330E-1
1.161567041E2,-6.350359321E-1,4.252153635E-1,-4.979681671E-1
1.162567713E2,-2.539244667E-2,7.581369281E-1,8.166138530E-1
1.163568382E2,5.127798319E-1,-9.707443416E-2,5.026291013E-1
1.164569065E2,1.340433806E-1,-5.614645779E-2,1.923095435E-1
1.165569666E2,3.935926780E-2,-9.402010590E-2,1.672640741E-1
1.166570393E2,-2.691276968E-1,-4.532088637E-1,5.547572672E-2
1.167571089E2,-4.065723717E-1,-4.623718560E-1,-2.414047867E-1
1.168571742E2,-7.462134361E-1,-9.890703112E-2,-1.040416479E0
1.169572451E2,6.806994230E-2,-1.263959557E-1,-2.206353545E-1
1.170573148E2,4.968973398E-1,4.281371459E-2,-3.778201528E-3
1.171573847E2,9.250454605E-2,2.859380841E-1,-3.922884762E-1
1.172574443E2,5.530969501E-1,1.008459106E-1,4.048906565E-1
1.173575096E2,2.103331126E-2,-2.987925150E-2,2.625590563E-1
1.174575818E2,-4.982705787E-2,6.542897820E-1,4.250491858E-1
1.175576378E2,-2.911188304E-1,8.674818277E-1,3.688496053E-1
1.176577093E2,1.731387675E-1,4.227718711E-1,4.952987134E-1
1.177577783E2,1.352651119E-1,-3.628008068E-1,3.700713217E-1
1.178578509E2,-4.310069680E-1,-5.112410784E-1,-5.095745921E-1
1.179579121E2,-3.393771946E-1,-7.141809165E-2,-2.890522778E-1
1.180579841E2,2.751532495E-1,4.123871624E-1,4.482620955E-1
1.181580586E2,2.830945253E-1,-2.033649683E-1,5.398918390E-1
1.182581352E2,6.501560658E-2,-3.487509191E-1,1.576948725E-2
1.183581821E2,-3.469714429E-4,6.151944399E-1,3.731256425E-1
1.184582519E2,-5.409626961E-1,-4.881607369E-2,4.219948649E-1
1.185583095E2,-1.738326997E-1,4.899670780E-1,1.617662758E-1
1.186583852E2,-6.136556864E-1,2.926575840E-1,-1.149556711E-1
1.187584536E2,-7.677354384E-3,-5.002455115E-1,-2.059745938E-1
1.188585164E2,-5.471397936E-2,-4.623718560E-1,-4.295512736E-1
1.189585846E2,-7.120733708E-2,3.384725153E-1,-5.260679722E-1
1.190586544E2,-2.440821975E-1,2.920467257E-1,-3.892341554E-1
1.191587188E2,1.786365509E-1,1.668193489E-1,-1.485532671E-1
1.192588022E2,2.568272948E-1,-3.151533306E-1,7.319081575E-2
1.193588679E2,1.511476189E-1,-9.585270286E-2,1.916986704E-1
1.194589233E2,1.077761799E-1,2.260732949E-1,1.886443496E-1
1.195589842E2,-2.501908541E-1,3.134270012E-1,1.813139617E-1
1.196590620E2,-2.642407417E-1,-1.111243293E-1,3.108174205E-1
1.197591246E2,-5.844758358E-3,-5.167388320E-1,1.941421330E-1
1.198591884E2,3.038639128E-1,-1.923694015E-1,-4.165184870E-2
1.199592556E2,-1.109135821E-1,-3.548595607E-1,-3.825146556E-1
1.200593271E2,-4.921618849E-2,-9.096577764E-2,-2.120832503E-1
1.201593914E2,6.440474838E-2,-1.410567313E-1,-2.102506608E-1
1.202594688E2,-8.586810529E-2,1.020676419E-1,-2.713371813E-1
1.203595298E2,4.278695583E-1,2.505078912E-1,2.051377147E-1
1.204596038E2,9.250454605E-2,8.618514240E-2,-3.126713634E-2
1.205615194E2,-1.096918508E-1,1.002350450E-1,-1.049771905E-2
1.206615876E2,-1.878826022E-1,-4.833776504E-3,2.069703043E-1
1.207616580E2,-6.228186488E-1,-1.033156365E-2,7.868860662E-2
1.208617196E2,6.983411498E-3,8.496341854E-2,2.369027138E-1
1.209617877E2,-8.403550833E-2,-6.743420959E-1,-1.088470221E-1
1.210618534E2,1.908538491E-1,-2.332973778E-1,-5.419505239E-1
1.211619241E2,3.142486215E-1,2.431775033E-1,-2.585090101E-1
1.212619881E2,3.783894777E-1,-2.369625717E-1,-1.552727818E-1
1.213620563E2,1.309206430E-2,-2.438146435E-2,-4.057275355E-1
1.214621227E2,2.837053537E-1,3.751244247E-1,-3.676492348E-2
1.215621828E2,2.543838322E-1,-1.777086407E-1,4.623119831E-1
1.216622556E2,-2.685168087E-1,8.435254544E-2,1.843682975E-1
1.217623230E2,-5.250802040E-1,-4.018961787E-1,1.532141715E-1
1.218623905E2,-1.127461791E-1,3.372507691E-1,-6.058866903E-2
1.219624656E2,6.373963356E-1,-1.240003347E0,1.088256482E-2
1.220625257E2,-5.751711130E-1,-6.897462159E-2,-9.836061001E-1
1.221625910E2,-3.259381354E-1,2.981553972E-1,-4.765878916E-1
1.222626618E2,4.761279225E-1,-2.560319565E-2,9.381760359E-1
1.223627320E2,1.621431857E-1,-2.149714231E-1,5.105703473E-1
1.224627983E2,-5.849450231E-1,-1.705108024E-2,-4.912486672E-1
1.225628579E2,2.519403696E-1,3.299203813E-1,5.364312977E-2
1.226629316E2,5.017842650E-1,-2.412386388E-1,3.547996879E-1
1.227629960E2,-3.778617084E-1,3.201465309E-1,8.052120358E-2
1.228630611E2,-2.269779742E-1,2.279058844E-1,6.138066053E-1
1.229631292E2,1.444280893E-1,-2.400168926E-1,6.492367387E-1
1.230632014E2,2.494969219E-1,6.541572511E-2,2.607264519E-1
1.231632716E2,-7.871414423E-1,-4.611501098E-1,-1.172974229E0
1.232633333E2,4.974398017E-2,-1.758760512E-1,-5.999826789E-1
1.233634109E2,6.832112670E-1,-1.471653730E-1,9.823630005E-2
1.234634685E2,1.395411640E-1,-2.937730551E-1,-3.525822461E-1
1.235635336E2,2.403339446E-1,3.916177750E-1,-2.316309363E-1
1.236635990E2,2.592707574E-1,3.879525661E-1,3.780125678E-1
1.237636654E2,1.407628953E-1,4.356000721E-1,4.574250579E-1
1.238637334E2,-5.214150548E-1,-2.621405944E-2,1.464946419E-1
1.239638010E2,-2.556886375E-1,4.105545878E-1,6.158437952E-2
1.240638685E2,-3.283816278E-1,-2.552885413E-1,2.191876024E-1
1.241639345E2,-2.886753678E-1,-3.377553523E-1,-2.750023901E-1
1.242640019E2,-5.867775679E-1,6.908091903E-2,-9.793300033E-1
1.243640695E2,3.680047691E-1,1.002483010E0,3.004326820E-1
1.244641350E2,7.381891012E-1,6.090857983E-1,5.606612563E-1
1.245641967E2,-1.286286712E-1,-1.050156802E-1,-2.475134283E-1
1.246642727E2,3.362397850E-1,-1.155329403E-2,2.369027138E-1
1.247643408E2,2.543838322E-1,-2.778905332E-1,5.655482411E-1
1.248644101E2,-2.165932655E-1,4.374326468E-1,3.993928432E-1
1.249644735E2,-5.941079855E-1,-1.312828809E-1,-9.052106738E-2
1.250645428E2,-2.416387498E-1,3.042640388E-1,1.312230229E-1
1.251646103E2,1.682518274E-1,-3.249271512E-1,4.109992981E-1
1.252646874E2,-6.295381188E-1,-5.491147041E-1,-5.987609029E-1
1.253647395E2,-2.055976838E-1,1.776823774E-2,-4.680357873E-1
1.254648090E2,2.446099818E-1,1.973626316E-1,2.766089439E-1
1.255648749E2,2.073472142E-1,1.130632162E-1,-3.248886764E-2
1.256649479E2,-2.960057259E-1,-5.309213325E-2,-6.958885789E-1
1.257650083E2,3.600635231E-1,3.317529559E-1,5.203441978E-1
1.258650792E2,-2.031542361E-1,7.184306383E-1,1.393689029E-2
1.259651482E2,-1.646697223E-1,-1.007396132E-1,1.202274412E-1
1.260652169E2,-1.298504025E-1,-1.215090379E-1,3.260890245E-1
1.261652794E2,2.085689455E-1,-2.155822963E-1,3.615192175E-1
1.262653507E2,3.344072104E-1,-1.819846928E-1,2.020833939E-1
1.263654282E2,-6.912355423E-1,-5.863775015E-1,-7.905726433E-1
1.264654900E2,-1.622262597E-1,1.210044622E-1,-4.564293623E-1
1.265655389E2,5.592055917E-1,-3.035468757E-1,2.020833939E-1
1.266656170E2,3.704482317E-1,-5.014672279E-1,2.246854007E-1
1.267656886E2,-1.720001101E-1,7.080459595E-1,-8.054258302E-3
1.268657451E2,2.385013402E-1,5.327276587E-1,6.791691184E-1
1.269658142E2,7.064241171E-1,9.901331365E-2,5.362266898E-1
1.270658938E2,-5.513474345E-1,1.442173421E-1,-7.463857532E-2
1.271659474E2,-1.426785737E-1,1.497151405E-1,3.132608533E-1
1.272660134E2,6.073955074E-2,-3.267597556E-1,5.612721443E-1
1.273660928E2,-1.805522144E-1,-1.373915374E-1,-3.104325533E-1
1.274661522E2,-5.751711130E-1,-1.398349851E-1,-1.096005201E0
1.275662179E2,7.210848927E-1,-4.275525212E-1,1.703183949E-1
1.276662881E2,2.604925036E-1,2.254624218E-1,-7.463857532E-2
1.277663630E2,-7.120733708E-2,-4.464893639E-1,-4.381034076E-1
1.278666982E2,-5.233893171E-3,4.252153635E-1,-5.175158978E-1
1.279667668E2,5.311057568E-1,-2.241344005E-1,7.683554888E-1
1.280668330E2,-8.037031442E-2,4.533151686E-1,3.407498002E-1
1.281669030E2,-3.766399622E-1,8.557427675E-2,2.369027138E-1
1.282669734E2,-1.420677006E-1,2.126342505E-1,3.150934577E-1
1.283670398E2,1.199934855E-1,-4.831412733E-1,-4.226271063E-2
1.284671013E2,-4.310069680E-1,-2.901078463E-1,-5.700502992E-1
1.285671637E2,-1.622262597E-1,-7.630500942E-2,-4.753661752E-1
1.286672433E2,7.295685261E-2,1.332217753E-1,1.788705140E-1
1.287673033E2,3.997013345E-2,-4.331828654E-2,4.203669354E-2
1.288673707E2,7.051339746E-2,-3.676877320E-1,-3.617452383E-1
1.289674380E2,-1.878826022E-1,3.232008815E-1,-3.354780376E-1
1.290675056E2,1.407628953E-1,-4.025070369E-1,2.802741528E-1
1.291675722E2,2.830945253E-1,5.846511722E-1,5.026291013E-1
1.292676384E2,-3.735856414E-1,1.410304569E-2,3.291433752E-1
1.293677076E2,-2.636298835E-1,3.128161728E-1,5.826523900E-1
1.294677748E2,5.463090166E-2,-6.530943513E-2,4.739184380E-1
1.295678360E2,-4.682697356E-1,-4.576174915E-2,-2.310200632E-1
1.296679102E2,-7.284983397E-1,-7.244330645E-1,-7.380381823E-1
1.297679732E2,2.336144149E-1,4.264370799E-1,-4.344381988E-1
1.298680409E2,5.054494739E-1,-2.656732500E-1,-1.039600968E-1
1.299681081E2,3.752667084E-2,-6.164424494E-2,-4.167231023E-1
1.300681778E2,2.164417692E-2,1.104871929E-2,-2.821280994E-2
1.301682498E2,1.480932832E-1,-1.838172972E-1,2.711111307E-1
1.302683197E2,-6.887921095E-1,5.180668831E-1,-1.583271027E-1
1.303683829E2,1.858985052E-2,7.383528166E-3,4.537598491E-1
1.304684494E2,2.323926836E-1,1.362760961E-1,3.712930679E-1
1.305685066E2,1.206043437E-1,-2.106953561E-1,-2.882367745E-2
1.306685766E2,-5.421844721E-1,-9.829615802E-2,-6.867254972E-1
1.307686453E2,-4.701023698E-1,-7.508328557E-2,-6.176977754E-1
1.308687130E2,1.206043437E-1,6.115292311E-1,-1.049771905E-2
1.309687793E2,8.811315894E-1,-6.816725135E-1,3.993928432E-1
1.310688473E2,-3.124991059E-1,-2.442929596E-1,-5.052985549E-1
1.311689167E2,-3.247164190E-1,6.695614457E-1,-8.257982135E-2
1.312689814E2,4.474172592E-1,-1.190655753E-1,6.333542466E-1
1.313690517E2,-4.560524225E-1,4.331566095E-1,1.049558073E-1
1.314691220E2,7.417859137E-2,-6.592030078E-2,2.387353033E-1
1.315691779E2,-6.455624010E-3,-1.593826860E-1,1.880334914E-1
1.316692532E2,-2.569103837E-1,-3.640225530E-1,-4.607053995E-1
1.317693220E2,-5.159172416E-1,-7.574197650E-1,-1.065461993E0
1.318693908E2,9.372626990E-2,-2.723927498E-1,-4.374925196E-1
1.319694511E2,5.891379714E-1,9.168293327E-2,-1.334740547E-3
1.320695175E2,1.462606788E-1,-3.133207262E-1,-5.523352027E-1
1.321695875E2,4.485705495E-2,3.219791353E-1,-4.246643782E-1
1.322696529E2,9.128281474E-2,4.777497649E-1,5.105703473E-1
1.323697261E2,3.869415820E-1,3.659614325E-1,6.052544713E-1
1.324697917E2,-4.884283245E-1,2.230189741E-1,-1.864269078E-1
1.325698678E2,-2.532451749E-1,2.889924049E-1,-9.479712695E-2
1.326699201E2,6.135041639E-2,-6.621247530E-1,8.846244961E-2
1.327699943E2,-4.163461924E-1,-3.659877181E-2,-7.581967711E-1
1.328700594E2,-2.697385550E-1,-5.827122927E-1,-9.329042435E-1
1.329701282E2,1.853560656E-1,-2.937730551E-1,-4.252752066E-1
1.330701963E2,4.877343476E-1,-2.449038178E-1,-1.479423940E-1
1.331702594E2,-1.720001101E-1,-1.086808667E-1,-7.820205092E-1
1.332703267E2,4.016023576E-1,-8.180279285E-2,-8.196895570E-2
1.333703896E2,2.427773923E-1,-1.722108573E-1,8.540812880E-2
1.334704647E2,-1.127461791E-1,1.710954159E-1,-2.963826656E-1
1.335705219E2,-2.104846239E-1,-7.569414377E-2,-3.928993642E-1
1.336705923E2,-1.200765595E-1,-1.966454685E-1,-4.533750415E-1
1.337706587E2,1.340433806E-1,-1.006041884E0,-7.019972205E-1
1.338707253E2,-3.211196512E-2,-2.577320039E-1,-9.555062056E-1
1.339707937E2,-8.072999716E-1,-1.227786064E0,-1.423429132E0
1.340708655E2,-3.150109947E-2,2.570948564E-2,-3.421975374E-1
1.341709319E2,4.193174541E-1,-1.954237372E-1,-5.511134863E-1
1.342709943E2,5.035484210E-2,1.277239770E-1,-9.744430780E-1
1.343710662E2,-2.734037340E-1,6.909416914E-1,-3.489170671E-1
1.344711415E2,6.954285502E-1,-3.145424426E-1,4.769727588E-1
1.345711931E2,-1.500089616E-1,2.265515924E-2,-6.119953468E-2
1.346712703E2,-2.520234585E-1,-4.984129071E-1,-1.387794167E-1
1.347713456E2,-3.454858363E-1,-6.963332295E-1,-1.355204545E-2
1.348713969E2,-3.118882477E-1,-3.884571493E-1,4.020409659E-2
1.349714751E2,-5.220258832E-1,-7.201569676E-1,-6.555714011E-1
1.350733696E2,3.655613065E-1,-5.753818750E-1,-6.146434546E-1
1.351734428E2,3.655613065E-1,1.148958132E-1,-5.474482179E-1
1.352734996E2,9.433714300E-2,-2.980490923E-1,-7.209340334E-1
1.353735664E2,-2.245345116E-1,-1.705108024E-2,-7.068840861E-1
1.354736323E2,1.169391572E-1,6.377964616E-1,5.227876306E-1
1.355737047E2,5.225536227E-1,-5.003780499E-2,6.944407821E-1
1.356737665E2,-3.173860610E-1,3.488571942E-1,3.531717137E-2
1.357738356E2,-3.272282705E-2,3.250334561E-1,2.033051103E-1
1.358739006E2,-5.110303164E-1,6.066423059E-1,-1.406120211E-1
1.359739734E2,3.954937160E-1,-1.177084208E0,7.828238420E-3
1.360740354E2,-5.434061885E-1,-1.636587381E-1,-8.333331943E-1
1.361741048E2,2.666011453E-1,-4.892499149E-1,1.715401262E-1
1.362741745E2,4.455846548E-1,8.021191955E-1,3.822886348E-1
1.363742470E2,9.067194909E-2,-1.184547096E-1,-2.029202729E-1
1.364743052E2,2.653109841E-2,3.158704937E-1,-3.248886764E-2
1.365743666E2,2.745423913E-1,2.754208259E-2,6.199152470E-1
1.366744381E2,-1.952129751E-1,4.020024836E-1,5.364312977E-2
1.367745061E2,-5.770037770E-1,3.677940369E-1,-2.108615339E-1
1.368745792E2,3.368506432E-1,2.693121508E-2,5.569961071E-1
1.369746464E2,-7.120733708E-2,-2.174148858E-1,3.938950896E-1
1.370747073E2,-7.168918848E-1,-5.503364205E-1,-7.368164659E-1
1.371747757E2,2.207862586E-1,-3.890680373E-1,-2.175810337E-1
1.372748412E2,4.223717749E-1,3.604636490E-1,1.690966636E-1
1.373749075E2,3.258550763E-1,-1.460762043E-2,1.416077316E-1
1.374749750E2,-2.886753678E-1,-9.646356106E-2,-5.309548974E-1
1.375750500E2,-4.494013637E-2,3.427485228E-1,-3.615406156E-2
1.376751136E2,6.386181116E-1,-1.202873066E-1,4.507055283E-1
1.377751793E2,-5.519583225E-1,4.667541683E-1,-9.479712695E-2
1.378752459E2,-1.109135821E-1,2.291276157E-1,4.549815953E-1
1.379753118E2,1.884103864E-1,-5.492473021E-2,5.411136150E-1
1.380753775E2,-2.587429881E-1,-6.535726786E-1,-9.886854328E-3
1.381754578E2,-7.376613021E-1,-4.409915507E-1,-7.862965465E-1
1.382755122E2,4.767388105E-1,-4.209655896E-2,1.391642541E-1
1.383755796E2,7.632345557E-1,-6.352466941E-1,1.617662758E-1
1.384756469E2,-4.010745883E-1,-2.204692066E-1,-8.675416708E-1
1.385757129E2,1.890212595E-1,9.412639588E-2,-3.061564863E-1
1.386757807E2,1.193826124E-1,-5.821014643E-1,3.645735383E-1
1.387758484E2,2.079580873E-1,5.669360757E-1,-6.181039661E-2
1.388759170E2,1.797898673E-2,1.692628115E-1,1.703183949E-1
1.389759837E2,3.752667084E-2,1.410304569E-2,4.103884399E-1
1.390760532E2,5.934140682E-1,-9.547292590E-1,4.299361408E-1
1.391761163E2,-8.989297748E-1,-4.183895588E-1,-8.962523341E-1
1.392761873E2,-5.403518677E-1,2.327927947E-1,-3.202064037E-1
1.393762580E2,4.706301391E-1,4.252153635E-1,5.576069355E-1
1.394763168E2,1.022783890E-1,-2.809448540E-1,-6.608645618E-2
1.395763844E2,8.211983740E-2,5.534970760E-1,-5.040768385E-1
1.396764649E2,-2.172725461E-2,8.015083671E-1,3.279216290E-1
1.397765243E2,6.288442612E-1,2.108016461E-1,9.338999391E-1
1.398765972E2,-4.927043319E-1,2.853271961E-1,1.831465662E-1
1.399766537E2,-2.831775844E-1,3.122052848E-1,4.232166111E-1
1.400767292E2,9.800233692E-2,-3.554704189E-1,2.631699145E-1
1.401767913E2,-2.055976838E-1,-1.312828809E-1,-5.932632089E-1
1.402768558E2,-8.995406032E-1,5.991793796E-2,-1.200463295E0
1.403769270E2,2.421665341E-1,4.301022589E-1,3.890081346E-1
1.404769884E2,7.296370268E-1,-3.659877181E-2,6.993277073E-1
1.405770557E2,1.108305082E-1,-3.182076514E-1,-2.530112267E-1
1.406771225E2,4.791138321E-2,5.773208141E-1,-2.462916970E-1
1.407771905E2,4.119870663E-1,-4.978020191E-1,3.774017096E-1
1.408772575E2,-4.756001234E-1,3.317529559E-1,-1.858160347E-1
1.409773257E2,-2.825667262E-1,-4.026396200E-2,1.293904334E-1
1.410773961E2,-1.280178130E-1,-1.514414400E-1,1.263360977E-1
1.411774646E2,1.151065603E-1,-6.211968660E-1,1.031232178E-1
1.412775290E2,-8.977079988E-1,-5.155171752E-1,-9.390128851E-1
1.413776023E2,-4.982705787E-2,-1.949454285E-2,-1.705444157E-1
1.414776674E2,9.452723861E-1,5.932033062E-1,8.581526279E-1
1.415777225E2,6.520571113E-1,-3.255380392E-1,1.709292531E-1
1.416778075E2,-6.997876763E-1,6.249682903E-1,-9.787191153E-1
1.417778728E2,-1.610045284E-1,4.447630346E-1,-2.027156204E-2
1.418779349E2,2.720989287E-1,-1.147895232E-1,5.679916143E-1
1.419779960E2,-4.933152199E-1,-1.483871192E-1,-2.126941234E-1
1.420780646E2,-4.145136178E-1,3.641288579E-1,-2.332589030E-2
1.421781308E2,1.022783890E-1,-3.621899486E-1,1.642097533E-1
1.422781999E2,-5.525691509E-1,-1.691565216E-1,-2.603416145E-1
1.423785179E2,-2.202584594E-1,1.104871929E-2,-5.987609029E-1
1.424785899E2,1.267129928E-1,6.414616704E-1,1.012906209E-1
1.425786543E2,5.952466726E-1,-7.997019589E-2,4.164971113E-1
1.426787209E2,8.395243436E-2,-1.105134636E-1,-4.460446537E-1
1.427787849E2,1.163282916E-1,2.981553972E-1,-1.314490288E-1
1.428788521E2,2.574381828E-1,-5.759928226E-1,2.814958692E-1
1.429789195E2,-3.632009327E-1,4.020024836E-1,-1.416291017E-2
1.430789888E2,-2.459148020E-1,-1.728217155E-1,-1.355204545E-2
1.431790593E2,-5.776830390E-2,-5.248126760E-2,4.653663039E-1
1.432791252E2,1.322107911E-1,-3.243163228E-1,4.800270796E-1
1.433791961E2,-9.368034005E-1,-6.285272241E-1,-8.003464937E-1
1.434792550E2,2.189536542E-1,2.315710783E-1,-2.151375711E-1
1.435793184E2,5.372143984E-1,5.113473535E-1,1.019014865E-1
1.436793898E2,2.213971168E-1,-2.730036378E-1,-1.937572956E-1
1.437794581E2,-2.501908541E-1,3.604636490E-1,-5.260679722E-1
1.438795240E2,4.363532737E-2,5.333384871E-1,4.537598491E-1
1.439795997E2,6.251789927E-1,-1.715999842E-1,6.877212524E-1
1.440796596E2,-2.960057259E-1,1.936974376E-1,-4.348444194E-2
1.441797283E2,-1.158005074E-1,2.425666451E-1,2.350701094E-1
1.442797924E2,-4.395590723E-1,-1.508305669E-1,2.283505797E-1
1.443798701E2,-3.192186356E-1,-2.204692066E-1,1.699121669E-2
1.444799267E2,-3.528162241E-1,-1.263959557E-1,-5.450048447E-1
1.445800025E2,7.107002139E-1,3.036531806E-1,1.061775461E-1
1.446800640E2,4.632997513E-1,-1.178438514E-1,-6.242126599E-2
1.447801360E2,-2.086520195E-1,-4.635935724E-1,-4.668140709E-1
1.448801960E2,7.356772572E-2,5.808534101E-2,-8.665123954E-3
1.449802639E2,-6.204435974E-2,-1.972563267E-1,1.147296503E-1
1.450803347E2,-1.884934753E-1,6.072531939E-1,-3.065627255E-2
1.451803986E2,-2.092628777E-1,1.417738795E-1,3.157043159E-1
1.452804644E2,2.629359365E-1,1.729280055E-1,8.752568960E-1
1.453805301E2,1.755822152E-1,-4.513762891E-1,3.719039261E-1
1.454806027E2,-1.166488767E0,-3.243163228E-1,-9.964342117E-1
1.455806670E2,-1.530632824E-1,-4.788652062E-1,-2.267440259E-1
1.456807410E2,6.929851174E-1,7.911236286E-1,4.696423709E-1
1.457808082E2,3.796111941E-1,-5.920078233E-2,-1.204534620E-1
1.458808662E2,1.694735736E-1,5.550932605E-3,-4.784204960E-1
1.459809345E2,-2.581321001E-1,6.671179533E-1,-1.302273124E-1
1.460810025E2,4.578019679E-1,-3.628008068E-1,3.059304953E-1
1.461810682E2,-4.145136178E-1,2.859380841E-1,4.978551879E-4
1.462811347E2,6.623734534E-2,2.120233923E-1,3.511344790E-1
1.463812213E2,-1.054157913E-1,-1.135677844E-1,2.839393318E-1
1.464812691E2,-3.149425685E-1,-2.485690117E-1,-2.578981221E-1
1.465813353E2,-4.872065783E-1,-1.245633587E-1,-8.278353810E-1
1.466814071E2,-1.041940600E-1,1.619324386E-1,2.493246458E-2
1.467814886E2,3.753351569E-1,3.806221783E-1,5.001856089E-1
1.468815453E2,3.490679562E-1,-3.805159032E-1,5.608659238E-2
1.469816083E2,2.042928934E-1,1.197827309E-1,-1.448880732E-1
1.470816822E2,-1.012081560E-2,2.114125192E-1,1.587119550E-1
1.471817436E2,1.797898673E-2,3.122052848E-1,2.888262570E-1
1.472818118E2,-3.149425685E-1,2.022495419E-1,4.494837821E-1
1.473818762E2,1.694735736E-1,3.718336811E-3,8.868633509E-1
1.474819461E2,5.279830471E-2,-5.106301904E-1,2.375135720E-1
1.475820185E2,-9.025949240E-1,-2.846100330E-1,-8.663199544E-1
1.476820866E2,-4.132918715E-1,5.014409497E-2,-5.248462558E-1
1.477821430E2,6.294550896E-1,3.995590210E-1,3.822886348E-1
1.478822151E2,3.258550763E-1,3.792679310E-2,3.287371621E-2
1.479822782E2,-1.500089616E-1,-7.752674073E-2,-4.906377792E-1
1.480823439E2,-2.722504176E-2,5.730447173E-1,-1.571053714E-1
1.481824169E2,1.633649170E-1,-5.680515170E-1,2.656133771E-1
1.482824815E2,-2.220910490E-1,2.204429358E-2,3.114282489E-1
1.483825531E2,-1.457328945E-1,6.194705367E-1,5.753220320E-1
1.484826175E2,-3.394456208E-2,-7.813760638E-2,5.588286519E-1
1.485826944E2,3.929085098E-3,-4.519871175E-1,2.615419589E-2
1.486827515E2,-8.079108000E-1,-2.558993995E-1,-1.034918666E0
1.487828123E2,4.394760132E-1,1.680410951E-1,-2.505677640E-1
1.488828816E2,7.455194592E-1,1.539911777E-1,-5.203655735E-2
1.489829466E2,-9.991800785E-2,-7.543654442E-1,-6.134216785E-1
1.490830146E2,-7.993587255E-1,2.865489423E-1,-7.142145038E-1
1.491830894E2,5.317167044E-1,-9.340924025E-2,8.764786124E-1
1.492831500E2,4.113761783E-1,2.816620171E-1,4.470403492E-1
1.493832273E2,-7.242906839E-2,4.525717348E-2,1.538250297E-1
1.494832807E2,1.639757901E-1,6.463485956E-1,4.421534538E-1
1.495834209E2,2.469850332E-2,-3.707420528E-1,4.458186328E-1
1.496834862E2,-5.024781823E-1,2.615034878E-1,-1.797073931E-1
1.497835559E2,-5.440170169E-1,-2.528450489E-1,-4.075601101E-1
1.498836222E2,2.458317280E-1,6.402399540E-1,3.541888297E-1
1.499836902E2,4.742953181E-1,-1.691565216E-1,3.651844263E-1
1.500837556E2,6.929166615E-2,-1.544957608E-1,-3.550257385E-1
1.501838357E2,1.438172311E-1,1.649867594E-1,-2.035311460E-1
1.502838922E2,5.995227098E-1,-3.976201117E-1,5.484439731E-1
1.503839578E2,-2.783590741E-2,4.838584363E-1,9.396023303E-2
1.504840283E2,-4.132918715E-1,-1.984780580E-1,6.097351387E-2
1.505840875E2,-6.387695670E-2,2.670012414E-1,5.075160265E-1
1.506841680E2,8.205141872E-3,-7.653610110E-1,2.735546231E-1
1.507842253E2,-1.077913165E0,-3.878462911E-1,-7.514772415E-1
1.508842924E2,-5.899003521E-2,1.093980223E-1,-3.079890907E-1
1.509843607E2,6.514462233E-1,4.514825642E-1,2.759980857E-1
1.510844352E2,3.631178737E-1,-1.838172972E-1,7.380168140E-2
1.511844934E2,-3.699204326E-1,1.008459106E-1,-5.639416575E-1
1.512845616E2,1.083870381E-1,8.980250955E-1,4.226057529E-1
1.513846344E2,7.632345557E-1,-5.442277789E-1,6.614540219E-1
1.514846941E2,-2.569103837E-1,4.331566095E-1,2.920852043E-2
1.515847621E2,-1.774978936E-1,3.604636490E-1,2.533960640E-1
1.516848309E2,-2.709602714E-1,-1.644021645E-2,3.077630699E-1
1.517848971E2,-1.591719389E-1,-4.916933775E-1,4.509101808E-2
1.518849725E2,-7.920283079E-1,1.228370592E-1,-8.925871849E-1
1.519850311E2,5.140016079E-1,6.035879850E-1,1.336664706E-1
1.520850982E2,6.722156405E-1,-1.135677844E-1,1.171731204E-1
1.521851777E2,1.713061631E-1,-6.248620152E-1,-3.489170671E-1
1.522852322E2,-4.713240564E-1,7.141546011E-1,-4.081709981E-1
1.523853006E2,-4.738359526E-2,2.022495419E-1,6.229695678E-1
1.524853645E2,4.639106095E-1,2.828837633E-1,7.970661521E-1
1.525854362E2,-2.819558382E-1,-1.202873066E-1,2.808850110E-1
1.526855037E2,2.775282972E-2,4.464630783E-2,3.554105461E-1
1.527855702E2,-2.532451749E-1,-2.058084458E-1,1.715401262E-1
1.528856342E2,-1.387621999E0,3.609419614E-2,-6.500735879E-1
1.529857027E2,-1.884934753E-1,-4.331828654E-2,-4.778096378E-1
1.530857695E2,4.309238791E-1,7.672998905E-1,9.701456130E-2
1.531858365E2,6.135725975E-1,-4.031179249E-1,2.472874075E-1
1.532859083E2,5.096571147E-2,-2.442929596E-1,-2.762240767E-1
1.533859733E2,4.675758183E-1,5.192885995E-1,1.373316646E-1
1.534860364E2,2.311709523E-1,-8.485712111E-2,6.113631129E-1
1.535861049E2,-1.445111632E-1,4.368218184E-1,3.957276642E-1
1.536861731E2,-2.501908541E-1,2.822728753E-1,3.609083593E-1
1.537862426E2,-1.738326997E-1,3.262552023E-1,6.968842149E-1
1.538863142E2,4.797931314E-1,-5.368974209E-1,6.199152470E-1
1.539863737E2,-1.391287088E0,-6.224185228E-1,-1.279875755E0
1.540864428E2,-4.248983264E-1,-2.113062292E-1,-1.085009694E0
1.541865071E2,8.524209261E-1,3.030422926E-1,1.110644639E-1
1.542865806E2,6.661069989E-1,-4.611501098E-1,1.061775461E-1
1.543866498E2,-3.473184109E-1,5.559405088E-1,-7.655271888E-1
1.544867087E2,2.330035567E-1,4.111654758E-1,2.979892194E-1
1.545867728E2,1.352651119E-1,1.912539601E-1,3.224238157E-1
1.546868420E2,-3.008926809E-1,2.230189741E-1,2.020833939E-1
1.547869146E2,1.951299161E-1,-2.558993995E-1,4.977421463E-1
1.548869824E2,2.653109841E-2,5.503101647E-2,3.505236506E-1
1.549870462E2,-4.004637003E-1,-1.386132687E-1,-3.531931043E-1
1.550871193E2,-2.556886375E-1,2.187429070E-1,-5.663850904E-1
1.551871837E2,1.083870381E-1,2.266841531E-1,1.379425377E-1
1.552872508E2,3.728916943E-1,3.293095231E-1,1.012906209E-1
1.553873164E2,3.124160469E-1,-5.248126760E-2,-3.421975374E-1
1.554873869E2,4.058784246E-1,7.518956810E-2,-1.027383730E-1
1.555874447E2,-2.300323099E-1,2.553948164E-1,3.486910462E-1
1.556875294E2,6.745906919E-2,3.195356727E-1,2.375135720E-1
1.557875823E2,-1.958238482E-1,-2.265778631E-1,6.280610710E-2
1.558876511E2,3.263975307E-2,-9.402010590E-2,5.056834221E-1
1.559877220E2,-4.005321115E-2,-5.185714960E-1,9.273850918E-2
1.560877920E2,-9.649031758E-1,-6.120337844E-1,-1.041638255E0
1.561878562E2,-3.448749781E-1,1.509368569E-1,-4.564293623E-1
1.562879190E2,7.681215405E-1,1.625433117E-1,4.384882450E-1
1.563879903E2,3.631178737E-1,-1.465545148E-1,-5.448001996E-2
1.564880492E2,-4.542198479E-1,4.795823693E-1,-7.191013694E-1
1.565881216E2,7.540032268E-2,6.286334991E-1,1.348882169E-1
1.566881845E2,3.209681511E-1,-3.230945766E-1,4.952987134E-1
1.567882577E2,9.555886686E-2,1.104871929E-2,3.694604635E-1
1.568886085E2,-4.059614837E-1,9.168293327E-2,-4.714963585E-2
1.569886742E2,7.051339746E-2,-6.034817100E-1,4.299361408E-1
1.570887440E2,1.939081699E-1,-2.229126692E-1,-7.891462743E-2
1.571888196E2,-7.541546822E-1,-2.785013914E-1,-7.490338087E-1
1.572888762E2,-4.725458026E-1,-3.476617485E-2,-1.876486391E-1
1.573889477E2,5.640925169E-1,-3.041577339E-1,1.898660809E-1
1.574890129E2,2.049037516E-1,-2.723927498E-1,-4.136687815E-1
1.575890790E2,3.808329403E-1,2.706664503E-1,-1.546619087E-1
1.576891428E2,2.488860488E-1,3.548333049E-2,4.384882450E-1
1.577892128E2,7.594276685E-3,4.844692945E-1,4.867465794E-1
1.578892853E2,-3.045578599E-1,-9.463096410E-2,1.770379245E-1
1.579893451E2,-6.118230820E-1,8.496341854E-2,1.416077316E-1
1.580894110E2,2.659902573E-1,-8.117867708E-1,4.390991032E-1
1.581894840E2,-1.878826022E-1,-7.812435031E-1,-5.792132616E-1
1.582895534E2,-5.849450231E-1,3.464137316E-1,-7.099384069E-1
1.583896278E2,6.465592980E-1,1.179501340E-1,4.934661090E-1
1.584896833E2,4.999516606E-1,8.740687370E-2,-1.416291017E-2
1.585897455E2,-8.220291138E-2,2.480644435E-1,-9.194651842E-1
1.586898150E2,-2.416387498E-1,5.577731133E-1,-3.281476498E-1
1.587898823E2,3.331854641E-1,-6.456314325E-1,3.401389420E-1
1.588899487E2,1.261021346E-1,1.032893732E-1,1.819248348E-1
1.589900180E2,-1.396242529E-1,7.030265033E-2,3.409544379E-2
1.590900897E2,6.562647223E-2,-2.601754367E-1,2.277397364E-1
1.591901531E2,-1.066375300E-1,-3.267597556E-1,-1.454989314E-1
1.592902214E2,-1.136556268E0,-6.718986034E-1,-1.373948932E0
1.593902845E2,6.745906919E-2,-2.558993995E-1,-3.281476498E-1
1.594903613E2,4.229826331E-1,8.007649332E-2,-1.363359541E-1
1.595904185E2,3.612852395E-1,-5.118519068E-1,-6.140325665E-1
1.596904852E2,1.584779918E-1,1.130632162E-1,-5.022442341E-1
1.597905578E2,1.614639163E-2,3.726809323E-1,1.489381045E-1
1.598906236E2,4.785713851E-1,2.346253991E-1,4.195514321E-1
1.599906872E2,-4.737675488E-1,1.735388786E-1,2.051377147E-1
1.600907626E2,-3.888572752E-1,3.036531806E-1,5.802089572E-1
1.601908216E2,6.905416250E-1,-7.842978239E-1,7.378122211E-1
1.602908884E2,-6.448098421E-1,-1.062374040E-1,-5.443938971E-1
1.603909566E2,-8.879341483E-1,-6.666372530E-3,-7.502555251E-1
1.604910217E2,6.276224852E-1,1.930865645E-1,3.383063376E-1
1.605910928E2,4.968973398E-1,-2.907187343E-1,-8.868847042E-2
1.606911577E2,2.837053537E-1,1.527694613E-1,-6.323584914E-1
1.607912312E2,1.633649170E-1,5.541079044E-1,-2.517894804E-1
1.608912929E2,1.206043437E-1,1.593564078E-2,2.943240404E-1
1.609913590E2,-2.843993306E-1,-1.221199036E-1,4.818596840E-1
1.610914293E2,-2.336974889E-1,1.759823263E-1,4.855248630E-1
1.611914997E2,3.258550763E-1,5.503101647E-2,4.195514321E-1
1.612915584E2,3.942719698E-1,-3.011034131E-1,-2.206353545E-1
1.613916311E2,-1.007052898E0,-5.063541532E-1,-1.033086181E0
1.614917023E2,-3.870246708E-1,7.274610549E-2,7.135822624E-2
1.615917577E2,6.086856723E-1,-6.958549470E-2,6.376302838E-1
1.616918324E2,2.849270999E-1,-3.279815018E-1,-1.021274999E-1
1.617918947E2,1.151065603E-1,3.134270012E-1,-4.710901082E-1
1.618919656E2,-1.475654840E-1,5.400580168E-1,5.181053653E-2
1.619920298E2,2.421665341E-1,2.059147358E-1,4.342121780E-1
1.620920970E2,-2.795123756E-1,7.885476202E-2,3.254781663E-1
1.621921672E2,-1.072483882E-1,2.204429358E-2,3.682387471E-1
1.622922331E2,3.069182336E-1,-2.839992046E-1,2.283505797E-1
1.623922976E2,-1.267960668E-1,2.021169849E-2,-4.289403856E-1
1.624923650E2,-5.562343597E-1,-1.471653730E-1,-8.027899265E-1
1.625924408E2,-6.693128496E-2,9.656985104E-2,-5.631261319E-2
1.626925029E2,5.494317412E-1,-1.862607598E-1,2.216310799E-1
1.627925687E2,2.702663243E-1,-7.691587508E-2,-4.588727951E-1
1.628926448E2,7.112426311E-2,2.944902182E-1,-1.436663419E-1
1.629927054E2,-9.442021698E-2,-2.717818916E-1,4.904117882E-1
1.630927680E2,-1.536741555E-1,5.589948893E-1,2.350701094E-1
1.631928370E2,-3.906898499E-1,-2.088627666E-1,1.788705140E-1
1.632929096E2,-1.475654840E-1,-1.033156365E-2,2.478982806E-1
1.633929744E2,6.954285502E-1,-8.747058511E-1,5.973131657E-1
1.634930387E2,-4.853739738E-1,-1.746543050E-1,-5.871545672E-1
1.635931018E2,-3.650335073E-1,1.155066788E-1,-3.641887009E-1
1.636931761E2,7.143653631E-1,3.054857850E-1,5.246202350E-1
1.637932380E2,3.570091724E-1,3.718336811E-3,9.151677787E-2
1.638933040E2,-2.483582646E-1,3.855091333E-1,-5.217919350E-1
1.639933729E2,1.963516325E-1,5.229538083E-1,2.863827944E-1
1.640934408E2,3.673939109E-1,1.008459106E-1,3.260890245E-1
1.641951046E2,-4.230657220E-1,-5.309213325E-2,-1.320599020E-1
1.642951721E2,-3.271598816E-1,2.584491670E-1,8.785158396E-2
1.643952392E2,1.651975065E-1,-3.078229427E-1,5.233985186E-1
1.644953038E2,4.156522453E-1,-6.883919835E-1,1.232817695E-1
1.645953723E2,-1.040650487E0,4.329202231E-3,-9.994885325E-1
1.646954430E2,-7.120050192E-1,1.106197536E-1,-3.391432166E-1
1.647955099E2,5.689794421E-1,-8.485712111E-2,4.085558355E-1
1.648955771E2,5.549295545E-1,-2.381843030E-1,-8.685587347E-2
1.649956460E2,2.488860488E-1,5.791533589E-1,-1.265621185E-1
1.650957096E2,-1.249634773E-1,-6.653116643E-2,7.074736059E-2
1.651957780E2,4.363532737E-2,4.508717060E-1,2.558395267E-1
1.652958456E2,-3.595357239E-1,-1.141786575E-1,6.830389053E-2
1.653959170E2,-1.439003050E-1,7.763303071E-2,3.425824046E-1
1.654959758E2,2.635468245E-1,-4.794760644E-1,4.818596840E-1
1.655960420E2,-7.731599361E-2,1.881996393E-1,-2.285766155E-1
1.656961312E2,-7.052854896E-1,-1.105134636E-1,-8.534917831E-1
1.657961799E2,1.218260825E-1,-4.392915219E-2,-6.058866903E-2
1.658962553E2,5.708119869E-1,1.704845428E-1,2.931022942E-1
1.659963181E2,3.141802177E-2,-1.208981723E-1,-5.315657854E-1
1.660963873E2,-1.012081560E-2,3.024314344E-1,-1.790965199E-1
1.661964481E2,2.397230715E-1,-2.742253542E-1,2.741655111E-1
1.662965178E2,-1.817739606E-1,1.875887811E-1,-3.981925175E-2
1.663965879E2,-1.139679104E-1,-6.714203209E-2,3.175369203E-1
1.664966502E2,-9.319848567E-2,-1.538849026E-1,5.643264651E-1
1.665967158E2,1.199934855E-1,-7.079396844E-1,2.039159834E-1
1.666967845E2,-9.148122668E-1,-5.937078595E-1,-9.713887572E-1
1.667968585E2,8.945021778E-2,3.561875820E-1,-2.719480693E-1
1.668969186E2,8.518100381E-1,2.022495419E-1,3.578540385E-1
1.669969847E2,2.837053537E-1,-5.992056727E-1,-3.299802542E-1
1.670970581E2,-7.846979499E-1,8.442689180E-1,-8.577678204E-1
1.671971217E2,3.447234631E-2,3.641288579E-1,4.329904616E-1
1.672971854E2,4.681866765E-1,-2.418494821E-1,4.965204597E-1
1.673972564E2,-1.573393345E-1,-2.315973490E-2,5.914091691E-2
1.674973169E2,-2.355985157E-2,1.265022457E-1,1.464946419E-1
1.675973915E2,5.707436055E-2,-6.169207692E-1,4.116101563E-1
1.676974565E2,-5.281345248E-1,-3.354444355E-2,-1.693226844E-1
1.677975227E2,-5.818907022E-1,-3.408096731E-1,-6.317476630E-1
1.678975886E2,9.189368039E-2,3.836764991E-1,-5.610797554E-3
1.679976583E2,6.844329834E-1,-1.888367720E-2,2.179658860E-1
1.680977233E2,5.890695751E-2,-2.717818916E-1,-9.139674306E-1
1.681977907E2,7.417859137E-2,7.213524729E-2,-3.721299469E-1
1.682978630E2,3.935926780E-2,-2.143605500E-1,4.256600738E-1
1.683979275E2,1.485624351E-3,5.797643065E-1,5.850958824E-1
1.684979989E2,-4.212331176E-1,-1.037939489E-1,4.928552508E-1
1.685980703E2,-1.603936553E-1,-2.254886739E-2,9.094653130E-1
1.686981313E2,2.714880705E-1,-5.381191373E-1,4.665880501E-1
1.687981937E2,-5.660081506E-1,-2.418494821E-1,-6.824494600E-1
1.688982685E2,-1.921586543E-1,1.607107073E-1,-3.324237168E-1
1.689983330E2,8.463122845E-1,3.109835386E-1,4.024471641E-1
1.690984009E2,5.408796668E-1,1.069545671E-1,1.080101430E-1
1.691984669E2,-2.190367281E-1,2.754208259E-2,-6.500735879E-1
1.692985296E2,-1.823848188E-1,4.698085189E-1,-1.760421991E-1
1.693985948E2,2.391121984E-1,-4.538197219E-1,1.831465662E-1
1.694986593E2,-4.756001234E-1,1.564346403E-1,1.373316646E-1
1.695987261E2,-1.451220363E-1,2.810511589E-1,4.843031168E-1
1.696988029E2,2.873705328E-1,1.295565814E-1,5.539417863E-1
1.697988662E2,-7.426166534E-2,-3.835702240E-1,-1.571053714E-1
1.698989426E2,-6.942899227E-1,-3.432531059E-1,-8.443288207E-1
1.699990041E2,-6.455624010E-3,-9.768529236E-2,-3.153194785E-1
1.700990678E2,3.582309186E-1,1.985843480E-1,-3.859752044E-2
1.701991341E2,5.726446509E-1,-4.727565646E-1,-1.088470221E-1
1.702992004E2,-1.989465952E-2,4.380435050E-1,-5.425613523E-1
1.703992661E2,-3.827486336E-1,6.127509475E-1,-1.332816333E-1
1.704993353E2,6.337311268E-1,-1.276176870E-1,5.258419514E-1
1.705993986E2,-3.015035391E-1,4.808041155E-1,5.240094066E-1
1.706994730E2,-1.206874251E-1,1.906431019E-1,5.991458297E-1
1.707995409E2,3.752667084E-2,-3.029360175E-1,5.288962722E-1
1.708996053E2,-3.711421788E-1,-5.197931528E-1,-8.135808259E-2
1.709996703E2,-6.124339700E-1,5.828186274E-1,-4.295512736E-1
1.710997513E2,3.698373735E-1,-2.449038178E-1,3.218129873E-1
1.711998046E2,4.150413871E-1,3.262552023E-1,3.348457813E-2
1.712998730E2,6.435049772E-1,-4.629826844E-1,-2.304092050E-1
1.714004108E2,2.256731689E-1,1.032893732E-1,-3.819037676E-1
1.715004765E2,-4.139027297E-1,1.100088879E-1,2.759980857E-1
1.716005555E2,2.469850332E-2,6.603984833E-1,2.576721311E-1
1.717006123E2,-2.953948975E-1,4.647890478E-2,1.165622473E-1
1.718006807E2,3.032530546E-1,-2.638406456E-1,7.909574509E-1
1.719007490E2,2.469850332E-2,-4.299960136E-1,2.527852058E-1
1.720008219E2,-1.101126075E0,-6.352466941E-1,-6.317476630E-1
1.721008822E2,1.016743660E0,-6.951115131E-1,2.307940573E-1
1.722009512E2,8.218775988E-1,9.261248708E-1,-3.004540689E-2
1.723010156E2,1.553552505E-2,-2.699492872E-1,-4.655923247E-1
1.724010831E2,-5.336323380E-1,-4.587066770E-1,-1.110055208E0
1.725011475E2,-1.848282814E-1,6.952177882E-1,-2.023093998E-1
1.726012144E2,9.426872246E-3,-3.438639939E-1,4.635337293E-1
1.727012962E2,2.323926836E-1,-1.111243293E-1,5.875393748E-1
1.728013545E2,-2.874536514E-1,2.028604150E-1,3.755691350E-1
1.729014189E2,-9.319848567E-2,-9.829615802E-2,3.413606584E-1
1.730014975E2,3.399049640E-1,-4.092265666E-1,1.821294799E-2
1.731015530E2,-1.033320069E0,-1.618261486E-1,-8.009573221E-1
1.732016214E2,-4.860532656E-2,2.896032631E-1,-6.832527462E-3
1.733016874E2,8.072168827E-1,-1.654913276E-1,2.399570346E-1
1.734017537E2,8.456330001E-2,-4.880281985E-1,-6.183086634E-1
1.735018171E2,9.739146382E-2,1.008459106E-1,-4.393251240E-1
1.736018914E2,-6.204435974E-2,4.991300404E-1,2.540069222E-1
1.737019589E2,2.849270999E-1,2.108016461E-1,3.547996879E-1
1.738020218E2,-1.823848188E-1,-1.094242930E-2,1.965855956E-1
1.739020931E2,-3.607574701E-1,9.718071669E-2,3.043025173E-2
1.740021596E2,-1.689457893E-1,-5.338431001E-1,9.334937483E-2
1.741022243E2,-3.308250606E-1,-5.125953630E-2,-1.955898851E-1
1.742022915E2,-4.145136178E-1,-3.505834937E-1,-4.002297223E-1
1.743023596E2,1.064860262E-2,3.616853654E-1,1.904769391E-1
1.744024253E2,4.003806114E-1,8.313082159E-2,2.014725208E-1
1.745024964E2,9.494800866E-2,8.923947066E-2,-3.250933290E-1
1.746025610E2,2.739315331E-1,4.954648614E-1,-3.798665479E-2
1.747026286E2,3.264659345E-1,-6.456314325E-1,4.653663039E-1
1.748027029E2,-3.271598816E-1,3.818439245E-1,-7.443393115E-3
1.749027606E2,-2.037650943E-1,7.383528166E-3,1.648205966E-1
1.750028301E2,1.352651119E-1,-1.734325886E-1,4.690314829E-1
1.751028947E2,3.136377633E-1,-4.587066770E-1,1.526032984E-1
1.752029689E2,-1.068139434E0,-7.287091017E-1,-9.420672059E-1
1.753030292E2,-3.143317103E-1,2.022495419E-1,-2.365178466E-1
1.754031014E2,9.275572896E-1,1.837910339E-2,4.977421463E-1
1.755031653E2,3.527331650E-1,-3.493617773E-1,-2.676720023E-1
1.756032278E2,-1.591719389E-1,5.034061074E-1,-5.761589408E-1
1.757032987E2,-9.686367959E-2,2.474535704E-1,3.187586367E-1
1.758033703E2,2.775967121E-1,2.871598303E-1,5.325614810E-1
1.759034459E2,-5.073651075E-1,8.618514240E-2,2.136898190E-1
1.760035022E2,-2.459148020E-1,2.969336510E-1,5.337831974E-1
1.761035667E2,3.080715612E-2,-4.269416630E-1,5.386701822E-1
1.762036383E2,-3.179968894E-1,1.765931994E-1,-3.305910826E-1
1.763037045E2,-5.959405899E-1,-4.550414681E-1,-8.650981784E-1
1.764037690E2,2.751532495E-1,2.326602489E-2,-1.943681687E-1
1.765038461E2,5.964683890E-1,4.159198329E-2,7.991033792E-2
1.766039105E2,1.016675234E-1,-3.011034131E-1,-4.991899133E-1
1.767039694E2,2.672120035E-1,6.113967299E-2,-1.131230742E-1
1.768040378E2,5.340916663E-2,2.059147358E-1,1.654314697E-1
1.769041163E2,1.816908717E-1,-4.881607369E-2,4.692361504E-2
1.770041771E2,-3.943550289E-1,3.303986788E-2,-1.843896694E-2
1.771042433E2,1.248119865E-2,-1.569392234E-1,4.409317076E-1
1.772043101E2,2.469850332E-2,-7.372612357E-1,4.867465794E-1
1.773043744E2,-8.518931270E-1,-4.196112752E-1,-4.002297223E-1
1.774044436E2,-2.324757725E-1,-1.349480748E-1,-2.902739942E-1
1.775045074E2,7.088675499E-1,3.195356727E-1,2.185767591E-1
1.776045777E2,3.539548516E-1,-6.103337929E-2,-1.454989314E-1
1.777046459E2,-3.822061419E-2,1.704845428E-1,-5.792132616E-1
1.778047177E2,1.609214544E-1,4.032242000E-1,5.914091691E-2
1.779047792E2,1.505367458E-1,-2.119171023E-1,3.535779715E-1
1.780048424E2,-3.515944779E-1,5.718230009E-1,2.149115652E-1
1.781049096E2,-3.589248657E-1,3.335855603E-1,5.087377429E-1
1.782049788E2,3.130268753E-1,-4.026396200E-2,9.839909077E-1
1.783050424E2,1.706952900E-1,-3.860137165E-1,3.712930679E-1
1.784051103E2,-1.086465359E0,-2.650623918E-1,-9.610040188E-1
1.785051766E2,-7.303993404E-2,-3.049011528E-2,-3.189846873E-1
1.786053794E2,8.371492624E-1,3.433594108E-1,1.495489776E-1
1.787054617E2,3.790003359E-1,-3.884571493E-1,-3.702973723E-1
1.788055158E2,-3.039470017E-1,2.401231825E-1,-7.129927278E-1
1.789055855E2,-8.525723964E-2,3.207573891E-1,-2.556471154E-3
1.790056506E2,3.014204800E-1,9.107206762E-2,1.519924253E-1
1.791057183E2,-1.952129751E-1,6.847005337E-2,2.851610780E-1
1.792057866E2,-3.638117909E-1,4.734737277E-1,3.419715166E-1
1.793058520E2,2.275057733E-1,-2.821666002E-1,5.136246085E-1
1.794059188E2,-1.958238482E-1,-1.068482772E-1,-1.904983260E-2
1.795059821E2,-9.361925125E-1,2.143342979E-2,-7.771335840E-1
1.796060575E2,-3.650335073E-1,4.808041155E-1,-2.542329431E-1
1.797061278E2,8.658599257E-1,3.115944266E-1,5.038508177E-1
1.798061870E2,1.064860262E-2,-7.263981551E-2,-3.336454332E-1
1.799062585E2,1.169391572E-1,6.663745642E-2,-2.420156449E-1
1.800063248E2,9.372626990E-2,3.751244247E-1,2.448439449E-1
1.801063891E2,3.813754022E-2,4.647890478E-2,-8.746674657E-2
1.802064555E2,-2.782906592E-1,-1.654913276E-1,4.142582789E-2
1.803065360E2,-4.616186395E-2,2.211863697E-1,6.119739413E-1
1.804065910E2,2.024603039E-1,-7.855195403E-1,7.213188410E-1
1.805066543E2,-4.621610940E-1,-2.204692066E-1,-2.578981221E-1
1.806067231E2,-6.503075957E-1,1.399412900E-1,-6.836711764E-1
1.807067984E2,2.348361462E-1,2.828837633E-1,6.158437952E-2
1.808068584E2,7.949995995E-1,-1.031830832E-1,1.318338811E-1
1.809069257E2,1.444280893E-1,-3.469183147E-1,-7.099384069E-1
1.810069956E2,2.073472142E-1,-5.431386083E-2,-2.297983468E-1
1.811070611E2,-2.539244667E-2,-3.518052399E-1,1.367208064E-1
1.812071286E2,-8.037031442E-2,4.691976607E-1,8.540812880E-2
1.813072079E2,-1.304612756E-1,-3.481400311E-1,-5.570174754E-2
1.814072635E2,-1.750544310E-1,-6.408770382E-2,1.825357080E-1
1.815073244E2,2.556055486E-1,-1.189912319E0,3.212021291E-1
1.816074027E2,-6.863486171E-1,-2.901078463E-1,-5.266788602E-1
1.817074691E2,-2.037650943E-1,-5.492473021E-2,-4.338273406E-1
1.818075323E2,4.926212728E-1,5.394471288E-1,1.709292531E-1
1.819076025E2,4.883452058E-1,-2.455146760E-1,-7.463857532E-2
1.820076658E2,-3.577715531E-2,-8.498968557E-3,-6.341911554E-1
1.821077323E2,4.730051756E-2,1.802583933E-1,-1.027383730E-1
1.822078047E2,4.718518555E-1,-3.847919703E-1,4.226057529E-1
1.823078674E2,4.144305289E-1,8.894729614E-1,3.627409339E-1
1.824079543E2,-1.194656938E-1,5.223429799E-1,1.892552227E-1
1.825079978E2,6.929166615E-2,-3.304249644E-1,6.596214771E-1
1.826080818E2,-2.722504176E-2,-7.989585996E-1,3.370845914E-1
1.827081420E2,-8.176847100E-1,-4.183895588E-1,-7.398708463E-1
1.828082121E2,6.372546311E-3,5.686361343E-2,-2.731697559E-1
1.829082730E2,5.714229345E-1,3.329747021E-1,1.025123522E-1
1.830083354E2,-3.333369270E-2,-4.025070369E-1,-5.395070314E-1
1.831084109E2,-3.089023381E-2,3.989481628E-1,-4.417685866E-1
1.832084776E2,1.902429760E-1,4.111654758E-1,3.126499951E-1
1.833085368E2,7.864474654E-1,3.975938633E-2,4.415425658E-1
1.834086086E2,-2.819558382E-1,3.879525661E-1,2.432160079E-2
1.835086720E2,-9.306947589E-1,5.180668831E-1,1.000688970E-1
1.836087426E2,4.871235192E-1,-7.207677960E-1,1.126322508E0
1.837088067E2,-4.127494246E-2,-7.508328557E-2,1.843682975E-1
1.838088789E2,-8.085216880E-1,-5.423951745E-1,-7.612510920E-1
1.839089637E2,-9.503108263E-2,1.881996393E-1,-1.546619087E-1
1.840090082E2,3.594526649E-1,-9.707443416E-2,6.952562928E-2
1.841090805E2,-6.632041931E-2,-1.966454685E-1,-4.338273406E-1
1.842091406E2,3.563983440E-1,3.769569993E-1,-2.285766155E-1
1.843092111E2,4.804039896E-1,6.432942748E-1,4.142582789E-2
1.844092774E2,5.768522620E-2,3.598527908E-1,-4.226271063E-2
1.845093423E2,-6.753531098E-1,5.425014496E-1,2.478982806E-1
1.846094290E2,-4.914826453E-1,4.539260268E-1,8.208898902E-1
1.847094794E2,4.132088125E-1,-8.062890172E-1,5.514982939E-1
1.848095473E2,7.594276685E-3,-4.275525212E-1,-1.790965199E-1
1.849096102E2,-5.959405899E-1,2.120233923E-1,-7.148253322E-1
1.850096775E2,-2.526343167E-1,-1.764869094E-1,-2.359070033E-1
1.851097445E2,3.997013345E-2,2.364579886E-1,-1.375577003E-1
1.852098117E2,4.608562887E-1,-2.131388187E-1,-2.847762108E-1
1.853098873E2,2.635468245E-1,3.445811570E-1,-2.010876834E-1
1.854099458E2,-2.715711296E-1,4.606455266E-1,1.666532010E-1
1.855100155E2,6.257214397E-2,1.649867594E-1,3.566322923E-1
1.856100832E2,-3.992419839E-1,-1.410567313E-1,2.802741528E-1
1.857101534E2,-2.379735559E-1,-6.592030078E-2,3.352520168E-1
1.858102170E2,1.193826124E-1,-2.687275708E-1,1.971964538E-1
1.859104609E2,6.684820354E-2,-8.498968557E-3,-1.033492386E-1
1.860105286E2,-3.515944779E-1,9.216123261E-3,-3.922884762E-1
1.861105975E2,2.469850332E-2,1.637650281E-1,1.507707089E-1
1.862106627E2,1.774148047E-1,2.767751217E-1,2.057485878E-1
1.863107351E2,-7.677354384E-3,4.342457652E-2,-2.811110318E-1
1.864107975E2,2.232297063E-1,-1.496088356E-1,-2.027156204E-2
1.865108594E2,1.485624351E-3,-2.748362124E-1,2.100246251E-1
1.866109295E2,-3.822061419E-2,5.602165461E-1,5.637156367E-1
1.867110011E2,-3.668661118E-1,1.863670498E-1,2.949348986E-1
1.868110691E2,-1.377916634E-1,-4.026396200E-2,1.409968585E-1
1.869111386E2,2.672120035E-1,-7.806326151E-1,1.959747374E-1
1.870112000E2,-6.087687612E-1,-5.399517417E-1,-6.195303798E-1
1.871112671E2,-1.457328945E-1,5.699903965E-1,-3.886232972E-1
1.872113345E2,9.159508944E-1,-3.151533306E-1,4.061123729E-1
1.873114062E2,1.560345292E-1,2.957119048E-1,-7.647116482E-2
1.874114679E2,-5.837232471E-1,1.048908830E0,-5.547786355E-1
1.875115329E2,2.024603039E-1,2.387689054E-2,1.287795603E-1
1.876116014E2,2.916465998E-1,-4.874173403E-1,4.726966918E-1
1.877116693E2,-4.860532656E-2,2.951010466E-1,3.004326820E-1
1.878117367E2,-4.175679386E-1,3.305312395E-1,-9.724058211E-2
1.879118073E2,-4.310753942E-2,-8.058106899E-2,1.776487678E-1
1.880118717E2,2.714880705E-1,-5.106301904E-1,4.448015243E-2
1.881119404E2,-8.292911649E-1,-7.630500942E-2,-7.691923976E-1
1.882120113E2,3.435701728E-1,-2.864426672E-1,7.991033792E-2
1.883120732E2,1.102196351E-1,2.889924049E-1,-1.803182513E-1
1.884121395E2,-1.195341069E-2,-2.504016161E-1,-3.593017757E-1
1.885122038E2,-1.591719389E-1,2.590599954E-1,-2.438482344E-1
1.886122777E2,9.006109089E-2,2.560056746E-1,5.545526147E-1
1.887123430E2,8.108820915E-1,-6.897462159E-2,3.352520168E-1
1.888124109E2,-2.575212419E-1,4.111654758E-1,1.226709038E-1
1.889124753E2,-5.171389580E-1,4.007807374E-1,5.364312977E-2
1.890125495E2,-4.126810133E-1,-5.155171752E-1,2.882153988E-1
1.891126113E2,-6.570954621E-2,-5.179605484E-1,3.700713217E-1
1.892126766E2,-5.091977119E-1,-2.106953561E-1,-6.989428997E-1
1.893127448E2,5.726446509E-1,2.712773085E-1,-1.904983260E-2
1.894128163E2,8.707469106E-1,-2.137496918E-1,8.968418092E-2
1.895128727E2,-4.005321115E-2,-5.649971962E-1,-4.405468404E-1
1.896129543E2,4.668965191E-2,3.792679310E-2,-4.002297223E-1
1.897130133E2,-1.793304831E-1,3.164813519E-1,1.324447542E-1
1.898130790E2,2.360578775E-1,7.117111683E-1,4.421534538E-1
1.899131528E2,7.723291963E-2,3.426159918E-2,6.755039692E-1
1.900132147E2,-2.740145922E-1,4.991300404E-1,6.675626636E-1
1.901132803E2,-5.288138241E-2,-2.528450489E-1,5.582178235E-1
1.902133495E2,-3.790834248E-1,5.991793796E-2,-1.888703704E-1
1.903134180E2,1.553552505E-2,1.776823774E-2,-4.545967281E-1
1.904134842E2,2.225504257E-2,1.147868872E0,-1.619922966E-1
1.905135488E2,9.782591462E-1,-2.546776533E-1,3.260890245E-1
1.906136291E2,-4.982705787E-2,-5.332322121E-1,-5.578330159E-1
1.907136879E2,-1.823848188E-1,-1.728217155E-1,-2.719480693E-1
1.908137524E2,-4.371840134E-2,-3.682985902E-1,1.098427325E-1
1.909138256E2,1.480932832E-1,3.971155286E-1,2.729437649E-1
1.910138847E2,-4.126810133E-1,-1.025722101E-1,2.931022942E-1
1.911139675E2,-5.220258832E-1,5.797643065E-1,8.190572858E-1
1.912140255E2,1.199934855E-1,-1.175251603E0,4.604793787E-1
1.913140884E2,-3.925224543E-1,-3.004925549E-1,-6.787843108E-1
1.914141525E2,3.771677613E-1,-8.093433380E-1,-5.718828440E-1
1.915142147E2,6.593875289E-1,3.965047002E-1,-1.485532671E-1
1.916142896E2,2.226188332E-1,-2.076410353E-1,-5.101854801E-1
1.917143660E2,-3.729747534E-1,-1.086808667E-1,-9.481758475E-1
1.918144205E2,-6.754214317E-2,1.674302220E-1,-5.126289725E-1
1.919144977E2,6.361746192E-1,-6.957223415E-1,4.562033415E-1
1.920145563E2,1.291564703E-1,9.242922068E-1,2.615419589E-2
1.921146350E2,-5.960089713E-2,-3.909006119E-1,1.159513891E-1
1.922146983E2,-2.324757725E-1,2.509861998E-2,1.275578290E-1
1.923147616E2,-4.860532656E-2,-1.856498867E-1,4.448015243E-2
1.924148344E2,-6.759639382E-1,1.148958132E-1,-4.973573387E-1
1.925148966E2,-1.475654840E-1,1.020676419E-1,-4.155013859E-1
1.926149653E2,7.125327587E-1,5.930707604E-2,1.684857905E-1
1.927150325E2,3.472353518E-1,-4.434350133E-1,-4.521532953E-1
1.928151103E2,-3.469714429E-4,-2.229126692E-1,-6.348019838E-1
1.929151600E2,-7.609426230E-2,2.676121294E-1,5.181053653E-2
1.930152266E2,-1.622946747E-2,1.045110971E-1,6.406846046E-1
1.931170692E2,1.480932832E-1,6.243574023E-1,7.481968999E-1
1.932171343E2,-2.770689428E-1,3.952829540E-1,6.871104240E-1
1.933172022E2,-4.616186395E-2,1.985843480E-1,7.310926914E-1
1.934172711E2,7.876691818E-1,-6.725094318E-1,5.148463845E-1
1.935173275E2,-1.137167215E0,-2.241344005E-1,-8.424961567E-1
1.936174001E2,-3.222729564E-1,1.043785457E-2,-1.833725870E-1
1.937174667E2,6.606092453E-1,3.451920152E-1,6.571779847E-1
1.938175348E2,3.411267102E-1,-1.001287550E-1,-1.534401923E-1
1.939176019E2,-1.939912587E-1,9.107206762E-2,-8.870893717E-1
1.940176728E2,-9.319848567E-2,4.783606231E-1,-1.387794167E-1
1.941177359E2,2.507186532E-1,-1.827281155E-2,7.414774299E-1
1.942178035E2,-3.925224543E-1,2.786076963E-1,5.429461598E-1
1.943178710E2,-2.715711296E-1,7.214849591E-1,3.175369203E-1
1.944179379E2,5.585262924E-2,-1.563283503E-1,1.733727306E-1
1.945180004E2,1.285455972E-1,-1.178438514E-1,-1.827617139E-1
1.946180697E2,-9.777314067E-1,-4.483219385E-1,-8.693742752E-1
1.947181388E2,-2.123172134E-1,-1.239525005E-1,-1.192317382E-1
1.948182061E2,4.345890880E-1,-3.084338009E-1,7.502341270E-2
1.949182832E2,4.132088125E-1,-2.815557122E-1,-3.159303367E-1
1.950183394E2,1.077830195E0,-2.387951612E-1,-6.608645618E-2
1.951184083E2,-6.240404248E-1,3.048748970E-1,-5.144615769E-1
1.952184752E2,-2.941731513E-1,3.616853654E-1,-3.737578914E-2
1.953185418E2,-3.949659169E-1,-1.135677844E-1,3.541888297E-1
1.954186083E2,-1.683349162E-1,4.111654758E-1,4.751401246E-1
1.955186707E2,4.150413871E-1,-4.244982004E-1,4.885791838E-1
1.956187430E2,-5.256910920E-1,-2.186366171E-1,-2.505677640E-1
1.957188150E2,-4.084049761E-1,6.133618951E-1,-3.373106420E-1
1.958188772E2,3.435701728E-1,-1.807629764E-1,2.863827944E-1
1.959189436E2,2.433882654E-1,-4.026396200E-2,-1.424446106E-1
1.960190138E2,-3.944234923E-2,4.892236367E-2,-5.272897482E-1
1.961190785E2,1.248804033E-1,5.442015082E-2,2.737592533E-2
1.962191523E2,2.739315331E-1,2.364579886E-1,7.591925263E-1
1.963192138E2,6.623734534E-2,1.961408854E-1,4.580359161E-1
1.964192813E2,-3.485401571E-1,9.216123261E-3,3.273107708E-1
1.965193447E2,1.797898673E-2,2.242406905E-1,2.417896241E-1
1.966194130E2,1.847451925E-1,-7.549763322E-1,2.595047355E-1
1.967194832E2,-8.366215229E-1,-4.379372299E-1,-7.129927278E-1
1.968195485E2,-1.903260648E-1,5.131799579E-1,-3.440301418E-1
1.969196183E2,5.579838753E-1,-3.915114701E-1,5.624939203E-1
1.970196825E2,-1.806206256E-2,1.625433117E-1,8.968418092E-2
1.971197497E2,-6.869595051E-1,3.134270012E-1,-4.900269508E-1
1.972198213E2,6.483919024E-1,-2.956056297E-1,1.065235972E0
1.973198849E2,5.689794421E-1,6.772662979E-3,2.002507895E-1
1.974199595E2,-5.177498460E-1,1.613215655E-1,-1.943681687E-1
1.975200124E2,-3.314359486E-1,1.014567763E-1,3.328085542E-1
1.976200970E2,-5.837916955E-2,-1.496088356E-1,3.615192175E-1
1.977201566E2,2.812618911E-1,-4.000636041E-1,-4.898223281E-2
1.978202234E2,-8.964862823E-1,-2.345191091E-1,-1.209626198E0
1.979202892E2,6.318301708E-2,-1.587718129E-1,-2.847762108E-1
1.980203661E2,6.013553143E-1,9.229379892E-2,2.515634894E-1
1.981204273E2,1.242695376E-1,-1.679348052E-1,-3.568583131E-1
1.982204905E2,-7.548339665E-2,7.782954574E-1,-2.053637356E-1
1.983205564E2,-1.133570373E-1,1.081762910E-1,8.227224946E-1
1.984206344E2,-7.426166534E-2,5.565513968E-1,8.679265380E-1
1.985206978E2,-3.241055608E-1,-2.681167126E-1,6.193042994E-1
1.986207552E2,-1.115244478E-1,5.205103159E-1,3.163151741E-1
1.987208257E2,2.806510329E-1,-1.949454285E-2,6.606507581E-3
