"Time (s)","Linear Acceleration x (m/s^2)","Linear Acceleration y (m/s^2)","Linear Acceleration z (m/s^2)"
3.572607000E-2,8.700389266E-1,-3.708381653E0,1.729492188E0
1.357978100E-1,1.734276861E-2,-2.732909679E0,-2.011274815E0
2.358646620E-1,1.590615153E0,-3.570587635E-1,-1.407259464E0
3.359341260E-1,-1.363377333E0,9.903361797E-1,-2.969579697E-1
4.359982240E-1,1.599573493E-1,1.105562925E0,2.831412315E0
5.360676210E-1,2.367541552E0,7.825469971E-2,2.723749161E0
6.361319520E-1,-1.051900983E0,-3.218371868E0,2.122053146E0
7.361989170E-1,9.834966660E-1,-3.463954926E-1,-1.978332520E0
8.362664150E-1,-2.860716879E-1,1.280107021E0,-1.163339615E0
9.363329450E-1,3.775637448E-1,1.361797571E0,-8.869886398E-1
1.036400507E0,7.362364531E-1,9.187476635E-1,2.585398674E0
1.136469938E0,9.395194054E-1,-4.722983837E-1,5.381570816E0
1.236538035E0,-3.268033564E-1,-2.954443455E0,-3.168923855E0
1.336605233E0,-8.829057217E-3,-7.450301647E-1,-2.397632599E-1
1.436674164E0,-1.218157768E0,1.543344021E0,-2.441482544E-1
1.536745160E0,-1.611128151E-1,2.531526089E0,6.954011917E-1
1.636822091E0,1.124202132E0,3.366720676E-1,4.105896950E0
1.736886555E0,-1.711325407E0,-2.702959538E0,3.437833786E-1
1.836951217E0,1.121051431E0,-3.112754822E-1,-3.320166111E0
1.937007748E0,-6.828913689E-1,3.223059177E-1,-1.525210381E0
2.037070678E0,-2.367267609E-1,1.525577307E0,3.426952362E-1
2.137136874E0,8.896592259E-2,1.072169065E0,6.007099152E-1
2.237203571E0,-2.561784983E-1,1.552388191E0,4.486168861E0
2.337273302E0,-1.449242830E-1,-2.923719883E0,-2.160850048E0
2.437340932E0,6.593883634E-1,-1.061992645E0,4.367828369E-3
2.537411496E0,-1.016268253E0,1.251316786E0,-2.373104095E-1
2.637476294E0,-5.320474505E-1,2.312514305E0,7.665214539E-1
2.737542559E0,-9.057050943E-2,1.630183697E0,2.952858925E0
2.837612390E0,1.402419209E-1,-1.755347729E0,1.701981544E0
2.937679520E0,8.552634716E-1,-2.059991360E0,-3.035125732E0
3.037750849E0,-2.895088494E-1,5.861325264E-1,-1.104225159E0
3.137812478E0,-6.636742353E-1,2.242084503E0,-1.511468887E0
3.237878508E0,-4.081372619E-1,1.174179077E0,2.100219727E-1
3.337944372E0,-1.038567126E-1,7.164039612E-1,3.642044067E0
3.438011402E0,-4.372076988E-1,-2.863574505E0,-2.476222038E0
3.538084266E0,5.280795097E-1,-1.383527994E0,-1.127872467E0
3.638148796E0,3.178261817E-1,5.194077492E-1,-1.654336929E0
3.738221727E0,-4.215977192E-1,2.557567835E0,-6.604251862E-1
3.838290357E0,-8.793896437E-2,1.880159616E0,1.843918800E0
3.938357521E0,-6.046304107E-2,-1.120594501E0,3.358156204E0
4.038419218E0,6.039422750E-1,-2.489782095E0,-3.140246868E0
4.138487749E0,-1.727074385E-1,-1.648097038E-1,-1.066783905E0
4.240979305E0,-5.225412250E-1,1.230036020E0,-1.499915600E0
4.341046135E0,1.870304346E-1,2.179388285E0,7.536773682E-1
4.441105432E0,4.703181982E-2,1.847213030E0,1.904795647E0
4.541169729E0,-6.359660625E-1,-2.782607555E0,6.262807846E-1
4.641237960E0,5.542337894E-3,-1.829265594E0,-2.881608009E0
4.741305723E0,-1.412279606E-1,-3.605225086E-1,-1.443903923E0
4.841372554E0,-8.914442658E-1,1.879928112E0,-1.662664413E-1
4.941438652E0,2.221287489E-1,2.000480890E0,1.277398109E0
5.041505216E0,1.817350388E0,3.906035423E-1,2.256520271E0
5.141572213E0,-3.888477981E-1,-1.494971991E0,-5.616302490E-1
5.241637976E0,-5.251737833E-1,-8.875513077E-1,-1.055648327E0
5.341705241E0,-7.956314087E-1,6.085462570E-1,-1.704634666E0
5.441773105E0,1.350430548E-1,2.370732784E0,5.074806213E-1
5.541841870E0,5.006706715E-2,1.158065796E-1,2.004892349E0
5.641910800E0,6.807144284E-1,-1.299131393E0,7.586441040E-1
5.741977831E0,7.437736988E-1,-1.512044907E0,-2.669242859E0
5.842044927E0,1.556891501E-1,9.498000145E-2,-1.637250423E0
5.942121091E0,-1.454509020E0,7.928841114E-1,-5.604982376E-1
6.042187222E0,7.669757009E-1,1.259562016E0,2.392016411E0
6.142254419E0,1.886561036E0,3.191800117E-1,2.070341110E0
6.242309215E0,2.428519726E-2,-2.034248829E0,-3.366680145E-1
6.342376612E0,3.234901428E-1,-5.405910015E-1,-2.875956535E0
6.442442975E0,-9.141519070E-1,1.442068100E0,-1.982819080E0
6.542511772E0,-6.398996711E-2,2.412082195E0,-4.540290833E-1
6.642579171E0,1.726551354E-1,1.690979004E-1,2.790106773E0
6.742647602E0,2.569266856E-1,-2.477602243E0,-1.597731113E0
6.842714331E0,2.307264209E-1,-1.411430120E0,-2.270652771E0
6.942781097E0,-1.049980223E-1,-2.326259613E-1,-2.499763489E0
7.042847661E0,-1.177165985E0,1.297853947E0,2.533464432E-1
7.142920292E0,5.387911201E-1,1.896712065E0,1.963562965E0
7.242996355E0,4.566558599E-1,-4.138019085E-1,5.347926140E0
7.343063253E0,9.456476569E-2,-2.961591959E0,-9.815616608E-1
7.443124983E0,3.877254426E-1,-1.197983146E0,-3.000882149E0
7.543192179E0,-8.734681010E-1,2.022960424E0,-3.802824020E-1
7.643260143E0,1.971496642E-2,2.221963644E0,4.068393707E-1
7.743327574E0,2.436624914E-1,7.307701111E-1,3.584486961E0
7.843386039E0,1.097219214E-1,-2.399161339E0,-2.882289886E0
7.943452137E0,-2.671866417E-1,-1.682465792E0,-1.723688126E0
8.043519101E0,-2.948373556E-1,-7.421255112E-3,-2.852484226E0
8.143590199E0,-2.939200997E-1,1.465310574E0,1.102695465E-1
8.243656229E0,1.935914159E-1,1.621174335E0,1.557028770E0
8.343722992E0,3.588349819E-1,7.524180412E-2,2.361104012E0
8.443785857E0,-2.402817607E-1,-2.261240482E0,-9.414196014E-1
8.543855154E0,3.844021559E-1,-9.338376522E-1,-2.273349762E0
8.643922452E0,-7.279095650E-1,1.157250166E0,-8.052835464E-1
8.743989716E0,5.641142726E-1,2.594588041E0,3.855199814E-1
8.844058614E0,-7.433001995E-1,-2.070555687E-1,2.518920898E0
8.944126345E0,2.675901055E-1,-2.016823292E0,-9.491095543E-1
9.044199275E0,8.181446791E-1,-1.133066177E0,-2.420935154E0
9.144263638E0,4.540314078E-1,-1.094102859E-1,-2.756100655E0
9.244329501E0,-1.089845896E0,1.561484814E0,4.062175751E-2
9.344390632E0,-5.553263426E-2,1.608804226E0,2.298294067E0
9.444458363E0,-6.537000537E-1,-4.727413654E-1,2.228486061E0
9.544526527E0,1.065854728E-2,-1.495306969E0,1.454780579E0
9.644594757E0,1.149662733E-1,-1.423482656E0,-3.635154724E0
9.744661420E0,-6.968944669E-1,1.118763447E0,-1.388845444E-1
9.844728351E0,1.662172079E-1,1.405991554E0,-7.451438904E-2
9.944793916E0,-7.251311541E-1,3.749227524E-2,4.145207405E0
1.004486701E1,8.759230375E-1,-1.416203976E0,-3.776460648E0
1.014493434E1,-5.396716595E-1,-8.789420128E-1,-2.547840118E0
1.024500144E1,-4.041613936E-1,-1.691055298E-2,-4.380607605E-2
1.034506334E1,2.645527720E-1,1.094123840E0,1.271820068E-2
1.044513027E1,5.773675442E-1,1.469329357E0,1.762135506E0
1.054519896E1,1.122763872E0,-3.630425930E-1,7.420873642E-1
1.064526539E1,8.574482799E-2,-1.408413887E0,-5.542488098E-1
1.074533266E1,-4.478443563E-1,-5.214037895E-1,-2.797772884E0
1.084540176E1,-3.205648065E-1,1.828467369E0,-1.849012375E-1
1.094546929E1,5.397059917E-1,1.202475548E0,7.192373276E-1
1.104553645E1,-2.503423393E-1,3.201169968E-1,3.475584030E0
1.114560112E1,-3.231670856E-1,-2.006427526E0,-1.884263039E0
1.124566641E1,5.811281800E-1,-8.460459709E-1,-2.786607742E-1
1.134573308E1,-8.307286501E-1,-9.009194374E-2,-1.872138977E0
1.144579981E1,3.416961432E-2,9.990015030E-1,-1.292948246E0
1.154586864E1,-5.814455152E-1,3.106231689E0,3.658412933E0
1.164599790E1,5.525088310E-1,-9.865493774E-1,2.003119469E0
1.174606529E1,-1.441777200E-1,-2.440551519E0,-4.031472206E0
1.184613539E1,-1.454143882E0,-9.958596230E-1,-1.341828823E0
1.194620382E1,-1.236463785E0,1.590621233E0,1.825609207E-1
1.204627102E1,-2.131913453E-1,1.773730278E0,2.536058426E-1
1.214633525E1,-8.418765068E-1,7.123928070E-1,4.232991219E0
1.224640068E1,1.627633274E-1,-2.136940718E0,-3.138189316E0
1.234646698E1,9.763145447E-1,-1.411611557E0,-6.865835190E-1
1.244653748E1,-3.528568745E-1,-1.835823059E-2,-1.014636040E0
1.254660534E1,-6.621825099E-1,1.415831089E0,1.426259995E0
1.264667330E1,7.342817783E-1,1.841171741E0,1.903374672E0
1.274673704E1,4.210069180E-1,-3.629655838E-1,2.844280243E0
1.284680427E1,5.204735994E-1,-1.766093016E0,-3.704337597E0
1.294687250E1,-7.932266593E-1,-1.037476063E0,-1.570831776E0
1.304693966E1,-8.052978516E-1,1.585829735E0,4.430961609E-2
1.314700629E1,-3.385791779E-1,1.689826012E0,1.551223755E0
1.324707115E1,-1.104399204E0,1.447744370E-1,6.949059486E0
1.334713782E1,4.650339484E-1,-1.936299562E0,-2.744831562E0
1.344720548E1,1.088725328E0,-6.059575081E-1,-2.416854858E0
1.354727838E1,-5.162321329E-1,5.493693352E-1,-1.563662052E0
1.364734601E1,-3.763356209E-1,1.591541529E0,1.444765091E0
1.374741304E1,-8.787074685E-2,2.044444084E0,3.236571312E0
1.384747553E1,4.899069667E-2,-1.402904987E0,4.164493561E0
1.394754373E1,4.963699281E-1,-1.335483313E0,-4.027404308E0
1.404761113E1,8.620755374E-2,-3.834455013E-1,-1.615017414E0
1.414767826E1,-1.449047476E-1,1.407977104E0,-1.005353928E-1
1.424774433E1,5.615684763E-2,1.536933899E0,7.937917709E-1
1.434782292E1,-1.741417646E0,5.301165581E-1,4.229268074E0
1.444789022E1,-4.037040770E-1,-1.523971796E0,-8.277235031E-1
1.454796122E1,2.523341477E-1,-9.235939980E-1,-8.686032295E-1
1.464801835E1,-6.866407394E-2,-8.288035393E-1,-2.626064777E0
1.474808545E1,-5.091096759E-1,1.393261909E0,1.226974487E0
1.484814931E1,-5.040615797E-1,2.077952385E0,3.059679985E0
1.494822144E1,1.256633699E-1,-1.073555470E0,3.045911789E-1
1.504828924E1,9.401618242E-1,-1.431389332E0,-2.895897865E0
1.514835580E1,-2.077516019E-1,-5.336935520E-1,-1.652493477E0
1.524841623E1,-2.564669549E-1,1.574680090E0,-5.401210785E-1
1.534848253E1,-3.813619018E-1,1.117444515E0,1.032492638E0
1.544855079E1,-9.245995283E-1,6.087450981E-1,3.856080055E0
1.554861576E1,-2.239900827E-1,-1.985653639E0,-2.050291538E0
1.564868252E1,7.866234779E-1,-1.346576452E0,-6.772527695E-1
1.574874835E1,8.158892393E-3,-2.291562557E-1,-1.760074139E0
1.584881761E1,-6.605419517E-1,1.663032055E0,5.467138290E-1
1.594881824E1,-1.481084526E-2,1.688657045E0,2.938965797E0
1.604888571E1,-1.284927428E-1,-6.128716469E-1,2.771453857E0
1.614895804E1,-2.126797661E-2,-2.668734550E0,-2.556688309E0
1.624909210E1,-3.560544252E-1,-3.650021553E-1,-1.021112919E0
1.634916317E1,-7.003012896E-1,1.188079119E0,-5.265417099E-1
1.644922490E1,-1.753990948E-1,2.135493279E0,1.186053276E0
1.654929020E1,-7.855633497E-1,8.927192688E-1,2.218671799E0
1.664935326E1,-2.030526102E-1,-2.230306149E0,-2.682613850E0
1.674942096E1,-9.587085247E-2,-1.396854162E0,-3.638229370E-1
1.684949279E1,3.006328344E-1,1.689248085E-1,-1.500520229E0
1.694955949E1,-9.710180759E-2,1.867976665E0,8.826665878E-1
1.704962672E1,3.832247555E-1,1.765014648E0,5.682373047E-2
1.714969115E1,5.242427588E-1,-1.497821808E-1,4.918339729E0
1.724975864E1,4.757618904E-1,-2.499385834E0,-3.199750900E0
1.734982571E1,-7.088213563E-1,-1.052154541E0,-1.701151371E0
1.744989301E1,-1.298342109E0,6.289837360E-1,-8.960113525E-1
1.754996494E1,-3.511562943E-1,2.536992073E0,1.173169136E0
1.765003383E1,1.125392467E-1,1.819511414E0,2.686576843E0
1.775010006E1,1.181569934E0,-2.197523594E0,-1.734543800E0
1.785016243E1,1.720882207E-1,-2.181582928E0,-2.006067276E0
1.795023269E1,2.549333870E-2,-4.946336746E-1,-2.002717018E0
1.805030042E1,-5.679126382E-1,1.638941288E0,3.356456757E-1
1.815036788E1,5.960582495E-1,2.045166016E0,1.202394485E0
1.825042948E1,6.054182053E-1,-3.608345985E-2,2.502671242E0
1.835049611E1,-2.014628053E-2,-2.005816221E0,5.434484482E-1
1.845056318E1,9.146810770E-1,-7.558364868E-1,-2.608093739E0
1.855062894E1,-5.384721756E-1,1.138070345E0,-9.045677185E-1
1.865069634E1,-1.201955676E0,2.632244825E0,5.797729492E-1
1.875076567E1,5.854235888E-1,1.296617985E0,1.934906006E0
1.885083413E1,-2.183559835E-1,-2.097980738E0,2.965841293E-1
1.895096511E1,-3.799621761E-1,-1.664185047E0,-1.023344994E0
1.905102988E1,3.412442207E-1,-6.378381252E-1,-2.276442528E0
1.915109740E1,-2.330611050E-1,8.296205997E-1,-6.792249680E-1
1.925116587E1,1.261741757E0,1.816718578E0,1.527303696E0
1.935123527E1,9.479376674E-1,9.056634903E-1,3.958323479E0
1.945130233E1,1.047324300E0,-2.135038376E0,2.969350815E-1
1.955136619E1,1.755452275E0,-1.017518044E0,-2.963106155E0
1.965143053E1,8.139178157E-3,1.179875374E0,-1.193692684E0
1.975149772E1,-1.245741248E0,2.106032133E0,-5.940628052E-1
1.985156668E1,6.489586830E-1,1.059918404E0,2.738316536E0
1.995163725E1,-4.851913452E-2,-1.362221479E0,5.896311760E0
2.005170431E1,5.932033062E-2,-2.831340075E0,-2.200857162E0
2.015177654E1,5.921670794E-1,-5.418777466E-1,-1.896301746E0
2.025184191E1,-6.898732781E-1,6.222634315E-1,-1.468077183E0
2.035190904E1,-5.903480053E-1,1.855619907E0,5.223703384E-1
2.045197164E1,8.446054459E-1,2.268538952E0,1.948841095E0
2.055203550E1,-5.690956116E-2,-1.481257200E0,3.210872650E0
2.065210243E1,-3.626663387E-1,-3.341573477E0,-5.369733334E0
2.075216900E1,1.424720883E-2,-7.742083073E-1,-2.569454670E0
2.085223819E1,-2.086230993E0,1.594556332E0,-2.965917587E-1
2.095230532E1,-4.944756627E-3,2.559676170E0,2.527287483E0
2.105237219E1,-7.529912889E-2,-4.227938652E-1,4.478148460E0
2.115243942E1,8.980014920E-1,-2.639270067E0,-3.483772278E-2
2.125251285E1,6.966187954E-1,-9.373257160E-1,-2.403008461E0
2.135258021E1,-8.390114307E-1,1.707935333E-1,-1.479475975E0
2.145264841E1,-1.233570576E0,1.098051071E0,-1.878767014E-1
2.155270917E1,-5.903136134E-1,1.589979172E0,3.188531876E0
2.165277610E1,-4.985272288E-1,-1.844310760E-1,2.406787872E0
2.175284190E1,-5.126579404E-1,-1.853514671E0,-1.253422260E0
2.185290937E1,-7.935194969E-1,-6.353151798E-1,-1.331393242E0
2.195297683E1,-1.243656039E0,3.738846779E-1,-1.469731331E0
2.205304409E1,-5.061546564E-1,2.018166542E0,7.948474884E-1
2.215311129E1,-4.073650837E-1,4.875783920E-1,3.204299927E0
2.225317819E1,-2.406625599E-1,-2.186110973E0,-2.114247322E0
2.235324872E1,2.974016070E-1,-8.759107590E-1,-2.363110542E0
2.245331848E1,-4.058434963E-1,-1.398043633E-1,-1.132688046E0
2.255338391E1,-5.867937803E-1,6.101067066E-1,-1.187896729E-1
2.265344738E1,-2.955263555E-1,1.170591354E0,1.182808876E0
2.275351291E1,9.110399485E-1,6.822195053E-1,2.119704247E0
2.285358191E1,4.608314633E-1,-1.667483926E0,-1.923780441E0
2.295365120E1,-3.320630193E-1,-9.298126698E-1,-1.398628712E0
2.305371723E1,-1.060206890E0,2.165430546E0,-9.294605255E-2
2.315378440E1,-1.125456095E-1,1.846915007E0,1.453138351E0
2.325385013E1,-9.145748615E-1,-6.586711407E-1,2.482554436E0
2.335391702E1,2.440620661E-1,-2.097958803E0,-1.746811867E0
2.345398486E1,-4.813855886E-2,-1.071496964E0,-5.040283203E-1
2.355404978E1,-1.271924973E-1,3.034725189E-1,-9.617671967E-1
2.365412238E1,-3.783768713E-1,1.626127481E0,1.312532425E-1
2.375418948E1,1.707474291E-1,9.175717831E-1,2.065033913E0
2.385425874E1,3.574781120E-1,-7.755768299E-1,3.218245506E0
2.395432074E1,1.308854938E0,-1.425110102E0,-3.158910751E0
2.405438700E1,3.962352276E-1,-8.806633949E-2,-2.665916920E0
2.415446137E1,-1.023977518E0,1.705322266E0,-2.937078476E-1
2.425452906E1,-1.262306273E-1,1.681607723E0,1.328933716E0
2.435459616E1,-3.545230627E-2,-1.381720781E0,5.805381775E0
2.445465552E1,-5.118908286E-1,-2.084246874E0,-3.559236526E0
2.455472175E1,1.450799555E-1,-1.106361628E0,-2.446507931E0
2.465479488E1,6.866338849E-2,6.986830235E-1,-1.805357933E0
2.475487352E1,1.190644264E0,2.338242054E0,1.847238541E0
2.485494505E1,1.539919972E-1,1.156137705E0,3.359890938E0
2.495500645E1,-8.895573616E-1,-1.725987911E0,6.618547440E-1
2.505506464E1,8.080902100E-1,-1.340579271E0,-4.070695400E0
2.515512771E1,-2.587234378E-1,1.037086248E0,-2.762040615E0
2.525519500E1,-1.287631989E0,1.664528608E0,1.047597885E0
2.535526307E1,6.744219661E-1,1.081411839E0,4.614452362E0
2.545533300E1,1.205688193E-1,-2.099471569E0,-1.932124615E0
2.555539793E1,5.603928566E-1,-9.948410988E-1,-2.275614738E0
2.565546829E1,-4.710385948E-2,4.645428658E-1,-1.061120987E0
2.575553809E1,2.635760605E-2,1.930243969E0,1.890668869E-1
2.585560702E1,1.142308712E0,1.079928160E0,2.012670517E0
2.595566738E1,7.107666135E-2,-1.578892469E0,2.278721809E0
2.605572888E1,7.954169512E-1,-1.130188704E0,-2.580420494E0
2.615580001E1,-4.558581710E-1,-2.185106277E-1,-3.099323273E0
2.625618265E1,-1.189870000E0,1.599839211E0,-5.609216690E-1
2.635624992E1,-4.917816818E-1,1.346475124E0,2.193118095E0
2.645631331E1,1.747709513E-1,-1.267306089E0,3.267046928E0
2.655637824E1,-3.890097141E-4,-1.920041323E0,-8.994884491E-1
2.665644457E1,3.512109220E-1,-4.147114754E-1,-2.911131382E0
2.675651264E1,-7.091108561E-1,6.049716473E-1,-2.139024734E-1
2.685658170E1,1.182459116E0,2.261200905E0,3.056610107E0
2.695664976E1,-7.844741344E-1,1.008922100E0,5.572434425E0
2.705671566E1,-1.331897140E0,-2.170269966E0,-6.068916321E-1
2.715678609E1,9.320276976E-1,-9.972350597E-1,-3.320081711E0
2.725685296E1,-7.490150928E-1,4.300589561E-1,-1.713897228E0
2.735692039E1,-3.398600817E-1,2.986475706E0,1.752217293E0
2.745698432E1,5.815986395E-1,4.125089645E-1,1.913352013E0
2.755704952E1,7.246869802E-1,-1.720070124E0,-1.398440838E0
2.765712381E1,6.773710251E-1,-1.118372440E0,-6.869726181E-1
2.775719224E1,-4.150228202E-1,-6.225132942E-2,-2.242953777E0
2.785726148E1,-3.341206908E-1,1.813313961E0,5.022459030E-1
2.795732151E1,2.716558874E-1,1.815351486E0,3.525527954E0
2.805738740E1,-1.123991251E0,-8.724250793E-1,1.594705582E0
2.815745490E1,5.953851938E-1,-1.921192884E0,-2.972771645E0
2.825752200E1,2.482779920E-1,-2.549538612E-1,-2.150885582E0
2.835758986E1,-7.957624197E-1,1.440307379E0,-1.261405468E0
2.845765666E1,-5.015643835E-1,1.612868309E0,1.770865440E0
2.855772166E1,4.951460361E-1,-6.362524033E-1,5.777201653E0
2.865778739E1,8.300244808E-1,-1.821631193E0,-2.736486435E0
2.875785755E1,1.271882534E0,-7.320601940E-1,-1.776054382E0
2.885792685E1,-2.146300077E-1,4.403853416E-1,-1.299242020E0
2.895799478E1,6.236125231E-1,1.909781694E0,3.417177200E0
2.905805891E1,-5.489284396E-1,1.111957550E0,4.361563683E0
2.915812604E1,-3.335645199E-1,-1.139902353E0,4.407987595E-1
2.925819318E1,2.435206622E-1,-1.123335600E0,-4.191253662E0
2.935826027E1,5.445801020E-1,5.264630318E-1,-3.794343472E0
2.945832737E1,-1.117780805E-2,2.915575027E0,2.755547523E0
2.955839227E1,3.378409147E-2,2.843546867E-1,1.288974762E0
2.965845910E1,2.295216322E-1,-1.602696419E0,-1.118518829E0
2.975852823E1,-1.098240316E-1,-1.372819901E0,-8.010320663E-1
2.985859756E1,-6.298211217E-1,-2.323913574E-1,-1.801509857E0
2.995866549E1,-2.841931581E-1,1.547840357E0,1.002589226E0
3.005873142E1,8.982589841E-1,1.743795395E0,2.173681259E0
3.015879912E1,-5.915868282E-1,-6.095037460E-1,3.282371521E0
3.025886598E1,1.115621805E0,-1.340820551E0,-3.625491619E0
3.035893238E1,5.896304846E-1,-5.552666187E-1,-1.498574734E0
3.046780504E1,-8.621563911E-1,5.555603504E-1,-7.793512344E-1
3.057054671E1,-1.824285269E0,1.773625374E0,2.749398232E0
3.067328230E1,-4.038622081E-1,-8.578872681E-1,5.994668961E0
3.077922230E1,5.311332941E-1,-1.936674237E0,-3.143711567E0
3.087928806E1,8.141368628E-1,-6.719701290E-1,-2.354477882E0
3.097936549E1,9.556970000E-2,1.003504276E0,7.040596008E-2
3.107943053E1,1.656214595E0,2.171491861E0,2.104644775E0
3.117949272E1,-1.126406074E0,2.391004562E-2,5.897336960E0
3.127954919E1,-1.255983353E0,-1.938839078E0,-1.268023014E0
3.137961688E1,-7.267616689E-2,-5.149908066E-1,-3.997818470E0
3.147968358E1,-4.794594049E-1,1.211975336E0,2.660703659E-1
3.157974914E1,-1.226205468E0,2.227549553E0,2.596553802E0
3.167981544E1,1.384326220E0,1.326198578E-1,7.528521538E0
3.177988254E1,-2.416189313E-1,-2.284856558E0,-3.062860489E0
3.187995307E1,8.342733979E-1,-9.305808544E-1,-2.380764961E0
3.198003183E1,-1.717303693E-1,6.270918846E-1,-6.273622513E-1
3.208009916E1,5.099525452E-1,1.500717640E0,3.017288208E0
3.218016856E1,-7.312027216E-1,1.291654110E-1,6.480871201E0
3.228022419E1,2.743617892E-1,-1.112084389E0,-1.133692741E0
3.238029849E1,1.422974110E0,7.992553711E-2,-3.148907661E0
3.248036125E1,4.852809906E-1,2.853496075E-1,-2.286706448E0
3.258042654E1,-7.851492167E-1,2.110614777E0,-7.249355316E-2
3.268049048E1,7.686993480E-2,1.972054958E0,1.940377235E0
3.278055811E1,-1.600399494E0,-2.361243725E0,1.119100571E0
3.288062693E1,-4.883139133E-1,-1.446124315E0,-1.571877956E0
3.298069060E1,2.631735057E-3,-1.401171207E0,-3.267915249E0
3.308075779E1,-5.531206727E-3,1.097727537E0,-4.023742676E-2
3.318082559E1,6.811573505E-1,1.798435450E0,4.734363556E-1
3.328089519E1,-1.159617424E0,9.847049713E-1,5.617157936E0
3.338096245E1,-5.216664076E-1,-1.164980888E0,-1.185252190E0
3.348121852E1,-9.939887524E-1,-6.274235249E-1,-3.315117836E0
3.358128648E1,-2.354235053E-1,3.971800804E-1,-1.900524616E0
3.368135428E1,-1.098116875E0,1.134680748E0,1.648416519E0
3.378142181E1,-6.474496722E-1,1.192497253E0,3.043044090E0
3.388148530E1,-7.652066946E-1,-1.325953484E0,-7.822570801E-1
3.398155174E1,-8.830070496E-2,-1.082736492E0,-5.625514984E-1
3.408161890E1,-1.360868514E-1,-9.058754444E-1,-2.509643078E0
3.418168603E1,2.041149855E0,7.418437004E-1,2.019108772E0
3.428175299E1,1.961238503E0,4.261107445E-1,2.513302803E0
3.438182019E1,6.241768599E-1,-1.082626343E0,1.851380348E0
3.448188902E1,-1.554381847E-2,-2.220299244E-1,-3.240477085E0
3.458195465E1,-7.353222966E-1,6.571972370E-1,-1.250648022E0
3.468202215E1,-1.820896983E0,1.184257507E0,-1.175432205E-1
3.478208781E1,-1.058050632E0,2.025275707E0,3.426778793E0
3.488215628E1,1.000786424E-1,-1.490504026E0,-1.473095894E0
3.498222267E1,4.549384117E-3,-1.482345581E0,-1.643925190E0
3.508229004E1,8.254520893E-1,-3.192009926E0,-1.690481663E0
3.518236270E1,8.888267279E-1,-1.046679974E0,-2.200284004E0
3.528243027E1,1.535651684E0,1.163608074E0,-9.917259216E-2
3.538249680E1,1.675143242E-1,1.813665390E0,7.837980270E0
3.548255869E1,-8.671095371E-1,-1.092949867E0,-6.273975372E-1
3.558262419E1,-1.277680278E0,-5.170044899E-1,-2.422860622E0
3.568269199E1,-1.389040232E0,6.509864330E-1,-2.072586536E0
3.578275958E1,-1.604381800E0,2.112167835E0,1.170051575E0
3.588282868E1,-4.598718584E-1,1.078546047E0,3.848507881E0
3.598289531E1,-8.615795374E-1,-2.129130125E0,-2.402713776E0
3.608296201E1,3.899605274E-1,-1.334672928E0,-9.883708954E-1
3.618303118E1,9.226350784E-1,-7.143096924E-1,-2.111406326E0
3.628309834E1,3.916506469E-2,8.142964840E-1,-4.462728500E-1
3.638316554E1,1.967811227E0,2.463711262E0,1.816161156E0
3.648322980E1,1.099791527E-1,-6.756613255E-1,2.526092529E0
3.658329573E1,-7.752610445E-1,-2.522004128E0,-1.776308537E0
3.668336283E1,-5.191833973E-1,-6.508724689E-1,-1.873336315E0
3.678343040E1,-1.017282248E0,1.016446590E0,-1.059882641E0
3.688350313E1,-4.991064668E-1,2.188961029E0,1.430999756E0
3.698357099E1,-3.408684731E-1,4.487771988E-1,3.954527855E0
3.708364045E1,-7.532000542E-1,-1.754939079E0,-1.114069462E0
3.718370342E1,5.003349781E-1,-1.380082846E0,-2.066632271E0
3.728376985E1,2.586512268E-1,1.682384014E-1,-6.451730728E-1
3.738384048E1,1.210545182E0,2.062345505E0,2.869220734E0
3.748390971E1,1.829400659E0,3.256030560E0,2.499614716E0
3.758397540E1,-1.292362452E0,-2.386029720E0,2.472107887E0
3.768404047E1,-2.208376825E-1,-1.721530437E0,-3.103115559E0
3.778410980E1,-5.293448567E-1,5.811774731E-1,-1.425160885E0
3.788417833E1,-1.383703232E0,2.171463490E0,3.311996460E-1
3.798424236E1,1.055609226E0,1.151724339E0,1.579965591E0
3.808430609E1,-4.596132934E-1,-1.737752199E0,2.765069962E0
3.818437739E1,-2.771430612E-1,-1.670064926E0,-2.744315147E0
3.828444452E1,6.035115719E-1,-5.471136570E-1,-3.066113472E0
3.838451022E1,-5.033075809E-1,8.215079308E-1,-3.235340118E-1
3.848457288E1,8.466942906E-1,1.795581579E0,8.972654343E-1
3.858464204E1,-2.317216843E-1,-2.084822655E-1,5.296514511E0
3.868470934E1,5.775779486E-2,-1.573403239E0,-1.689359665E0
3.878477724E1,7.250163555E-1,-5.672018528E-1,-3.059749126E0
3.888484570E1,-6.626322269E-1,4.604778290E-1,-1.389615536E0
3.898491840E1,-1.229620337E0,2.363597155E0,1.297501564E0
3.908499060E1,8.586737514E-1,1.393889904E0,2.961400986E0
3.918505343E1,1.865352541E-1,-1.761528969E0,-1.931946754E0
3.928512032E1,3.735853732E-1,-1.393768549E0,-1.243616581E0
3.938518169E1,-2.678748369E-1,-6.905725002E-1,-1.822648048E0
3.948524862E1,-6.940472126E-1,9.268419743E-1,6.006631851E-1
3.958530862E1,1.019083381E0,1.497848511E0,1.401435852E0
3.968537642E1,9.755961597E-3,4.940176010E-2,3.263416290E0
3.978544475E1,4.396795630E-1,-1.371826887E0,-2.038231850E0
3.988551721E1,1.638143361E-1,-6.360063553E-1,-3.280610561E0
3.998558501E1,-3.598411679E-1,8.918194771E-1,-1.000901222E0
4.008565127E1,-1.104675055E0,1.826843023E0,2.568844795E0
4.018571737E1,1.651311964E-1,3.982448578E-1,2.386654854E0
4.028578324E1,-1.666022837E-1,-2.039335489E0,-1.932740211E0
4.038585137E1,3.796312809E-1,-1.136636257E0,-2.683258057E-2
4.048591553E1,-2.259996235E-1,-3.144860268E-2,-1.730766296E0
4.058598133E1,-6.082371473E-1,1.583054304E0,1.632043839E0
4.068604786E1,1.407969832E0,1.830809832E0,2.838360786E0
4.078605463E1,1.463487744E-1,-5.872051716E-1,1.390601158E0
4.088612326E1,9.794288874E-2,-1.888444901E0,-3.201827526E0
4.098619016E1,-1.027170658E0,-6.310136318E-1,-8.737401962E-1
4.108625412E1,-7.236175537E-1,5.000581741E-1,-7.819118500E-1
4.118632118E1,-9.246749878E-1,1.714015484E0,1.613855362E0
4.128638811E1,8.349102736E-1,4.520058632E-1,6.671006203E0
4.138645454E1,-1.320959568E0,-1.619282246E0,-2.621316433E0
4.148652171E1,1.212112308E-1,-9.707610607E-1,-1.460647583E0
4.158658750E1,-1.345376968E-1,-3.017015457E-1,-1.839191437E0
4.168665433E1,1.480764389E0,6.610677242E-1,2.095813751E0
4.178672127E1,5.134781599E-1,1.294347525E0,6.420738220E0
4.188678976E1,2.251758575E-1,-1.094419003E0,4.674654007E-1
4.198685716E1,1.077477932E0,-1.092589378E0,-4.495177269E0
4.208692456E1,-3.850349188E-1,-9.171485901E-3,-1.556902885E0
4.218699169E1,-1.380151510E0,1.847011328E0,8.340320587E-1
4.228705969E1,1.577171087E-1,1.236064672E0,1.822253227E0
4.238712692E1,-1.210927069E-1,-1.475611687E0,2.005251884E0
4.248719381E1,2.647577226E-2,-1.601081610E0,-2.128730774E0
4.258726548E1,4.289105535E-1,-1.063593626E0,-2.410384655E0
4.268733631E1,-8.345627785E-2,4.969210625E-1,-4.197645187E-1
4.278740397E1,1.347664833E0,1.692081928E0,6.234579086E-1
4.288746574E1,-1.103293896E0,1.088311672E-1,4.230916023E0
4.298752880E1,-3.984797895E-1,-1.613821507E0,1.788806915E-2
4.308759693E1,3.701537251E-1,-4.135851860E-1,-1.811000824E0
4.318766733E1,-6.459310651E-1,7.525694370E-1,-1.752001286E0
4.328773473E1,-1.866860688E-2,2.543197155E0,1.746701241E0
4.338781266E1,2.128694803E-1,-1.979856491E-1,2.596510887E0
4.348787912E1,-9.163664281E-2,-1.962881565E0,-2.179585457E0
4.358794575E1,6.742091179E-1,-1.079125166E0,-2.361626625E0
4.368800078E1,-1.474120468E-1,-4.930667877E-1,-1.840573788E0
4.378806598E1,-2.684044242E-1,9.069232941E-1,3.366012573E-1
4.388813887E1,1.097564936E0,1.495571613E0,3.236324310E0
4.398820640E1,-8.333169222E-1,-2.713572979E-1,3.091040611E0
4.408827437E1,1.088843942E0,-9.786210060E-1,-2.568645000E0
4.418833627E1,2.056522369E-1,-2.800960541E-1,-2.452139378E0
4.428840353E1,-8.003272414E-1,1.213457108E0,-5.538501740E-1
4.438846916E1,-1.253825188E0,1.797830582E0,1.331969261E0
4.448854069E1,-1.319894195E-1,1.058599949E0,4.650050163E0
4.458860649E1,-8.178277612E-1,-2.461781979E0,-2.388905048E0
4.468867319E1,4.304554164E-1,-1.646556616E0,-1.688475132E0
4.478873568E1,-3.206589520E-1,-3.438131809E-1,-1.406692505E0
4.488880391E1,5.797845721E-1,1.778173447E0,2.178005219E0
4.498887154E1,1.867484093E0,3.538232803E0,3.043012619E0
4.508893864E1,-1.055814266E0,-1.079926610E0,1.226145744E0
4.518900850E1,-2.371050715E-1,-2.081295729E0,-2.768763542E0
4.528907664E1,-4.502736628E-1,-4.103150368E-1,-3.168821335E0
4.538914400E1,-1.193088174E0,1.101182222E0,8.299160004E-2
4.548920766E1,-4.966348410E-1,1.842852354E0,1.662017822E0
4.558927269E1,2.612681389E-1,-1.298411608E0,5.084970474E0
4.568933902E1,-7.329677343E-1,-1.675023317E0,-2.548996449E0
4.578940719E1,6.079769135E-2,-6.824395657E-1,-2.338162422E0
4.588948045E1,7.662267983E-2,2.708618641E-1,-1.285510063E0
4.598954952E1,1.371328950E0,1.343403339E0,3.132575989E0
4.608961728E1,9.342894554E-1,1.540321112E0,3.228395462E0
4.618967898E1,4.954236746E-1,-7.139778137E-1,9.409666061E-1
4.628975124E1,6.402235627E-1,-7.543120384E-1,-3.515831470E0
4.638981747E1,-2.124242783E-1,5.727035999E-1,-1.464477062E0
4.648988937E1,-7.057590485E-1,1.221815348E0,1.736202240E-1
4.658994927E1,2.769911289E-2,1.451646805E0,1.412742615E0
4.669001586E1,-1.198254824E-1,-1.718180180E0,2.482840538E0
4.679007966E1,-7.884361148E-1,-1.534960747E0,-2.239661217E0
4.689014759E1,4.146495461E-2,-7.308936119E-1,-2.152865410E0
4.699021522E1,8.279246092E-2,5.931272507E-1,-9.218711853E-1
4.709028575E1,1.108126998E0,1.630616426E0,1.270817757E0
4.719035285E1,3.651658297E-1,1.099318027E0,4.177190781E0
4.729041911E1,1.113080978E-1,-1.561629295E0,4.474878311E-1
4.739048138E1,-2.546487749E-1,-1.450450659E0,-4.007205486E0
4.749054824E1,-4.143977165E-2,6.810595989E-1,-1.451427460E0
4.759061490E1,-5.850335360E-1,2.099922657E0,1.936589241E0
4.769068337E1,-2.298665196E-1,1.174123287E0,1.957855225E0
4.779075083E1,-4.132257700E-1,-1.868340254E0,2.898216248E-2
4.789081909E1,-1.452746987E-1,-4.191758633E-1,-1.003772259E0
4.799095840E1,-6.431829929E-1,-4.670681953E-1,-2.160452366E0
4.809102580E1,-2.748048306E-1,3.895225525E-1,-4.216861725E-2
4.819109320E1,1.398825884E0,9.656662941E-1,1.133949280E0
4.829116373E1,5.081784725E-2,-5.087461472E-1,1.046601295E0
4.839123082E1,-6.846668720E-1,-5.721914768E-1,-2.046762466E0
4.849129746E1,-7.508823872E-1,-1.165628433E-1,-2.017728806E0
4.859136319E1,-2.318389714E-1,8.683323860E-1,-1.178302765E0
4.869143032E1,-9.582567215E-2,9.907865524E-1,1.963196754E0
4.879149858E1,-1.588472366E0,-5.262999535E-1,4.692572594E0
4.889156071E1,2.869372666E-1,-7.816948891E-1,-1.378469944E0
4.899162771E1,2.739812434E-1,-6.774818897E-1,-2.136342049E0
4.909169427E1,-3.746214807E-1,-4.566669464E-3,-6.241836548E-1
4.919176167E1,1.635055780E0,8.412618637E-1,5.850858688E-1
4.929182877E1,4.583005309E-1,9.259033203E-1,1.501495361E0
4.939189580E1,-1.510680765E-1,-9.102635384E-1,3.037319183E-1
4.949196216E1,-3.945642710E-1,-9.146137238E-1,-1.689919472E0
4.959202739E1,-4.107716680E-2,3.641505241E-1,-1.293833733E0
4.969209449E1,-5.252896547E-1,1.616970062E0,-7.486553192E-1
4.979216818E1,9.643665552E-1,1.379027843E0,1.772938728E0
4.989223772E1,-5.343371630E-1,-1.008200407E0,4.180518150E0
4.999230605E1,-7.881547809E-1,-1.213028193E0,-1.277637959E0
5.009236708E1,-2.180247903E-1,-1.422663450E0,-3.587866783E0
5.019243384E1,7.819987535E-1,-3.866395950E-1,-2.566293716E0
5.029249990E1,8.965996504E-1,7.538061142E-1,1.437793732E0
5.039256677E1,5.739246607E-1,1.036575794E0,3.168290138E0
5.049263353E1,-2.736284137E-1,-8.108437061E-1,8.659038544E-1
5.059270456E1,5.431522131E-1,-1.213866472E0,-2.451472282E0
5.069277552E1,7.813396454E-1,7.769823074E-1,-3.172118187E0
5.079284292E1,-8.841736913E-1,1.241692781E0,3.731288910E-1
5.089290612E1,3.065553606E-1,1.120078564E-1,2.020726204E0
5.099297005E1,5.276669860E-1,-2.169220448E0,8.455667496E-1
5.109303738E1,-5.644344091E-1,-1.362956643E0,-2.651586533E0
5.119311101E1,6.548571587E-1,5.114557743E-1,-1.808111668E0
5.129318201E1,1.307868958E-2,1.591153860E0,-9.742412567E-1
5.139324944E1,3.314515054E-1,9.674000740E-2,1.083906174E0
5.149330943E1,3.981406093E-1,-1.186702490E0,1.108564472E1
5.159337103E1,1.325316131E-1,-1.341452122E0,-2.507864475E0
5.169344063E1,-5.611506701E-1,-4.011738300E-1,-2.084553719E0
5.179350899E1,-5.096738338E-1,4.568939209E-1,-1.697492123E0
5.189357749E1,-4.009997845E-1,8.423409462E-1,9.368858337E-1
5.199364182E1,-1.193594575E0,3.165817261E-1,4.677873611E0
5.209370848E1,1.798004508E-1,-1.668577552E0,7.968521118E-2
5.219377512E1,-2.609967589E-1,-5.650274754E-1,-1.347920418E0
5.229384308E1,1.269632578E-2,2.162182331E-1,-1.382175446E0
5.239391261E1,2.703367472E-1,1.294133663E0,-5.700416565E-1
5.249397957E1,1.925265789E-1,5.686171055E-1,1.890707970E0
5.259404644E1,1.453993469E-1,-3.805561066E-1,3.454539299E0
5.269411190E1,5.035917163E-1,-1.490235806E0,-2.921142101E0
5.279418007E1,4.302024841E-2,-5.378525257E-1,-1.954649925E0
5.289424673E1,7.000129223E-1,5.212233067E-1,-4.990577698E-2
5.299431319E1,-5.643497705E-1,1.845847368E0,1.535570145E0
5.309437999E1,1.762166619E-1,7.539868355E-2,1.679583549E0
5.319444816E1,3.713794351E-1,-2.915185928E0,4.075679779E-1
5.329451508E1,1.084940195E0,-8.161501884E-1,-7.689247131E-1
5.339458305E1,1.415640473E0,-4.502139091E-1,-2.839320183E0
5.349464865E1,-1.965180039E-2,2.519659996E-1,-2.344032764E0
5.359472031E1,9.356591105E-1,6.193151474E-1,3.572683334E0
5.369478650E1,5.232034922E-1,-6.635522842E-2,5.112412453E0
5.379485480E1,3.615527749E-1,-1.062638283E0,-1.829481602E0
5.389491796E1,-1.200110316E-1,-3.528411388E-1,-2.209990978E0
5.399498583E1,-6.954164505E-1,-1.587128639E-2,-2.043118477E0
5.409505309E1,-7.612391710E-1,1.260403633E0,-3.614988327E-1
5.419512329E1,-2.867239714E-1,1.479527473E0,4.340230942E0
5.429519155E1,-7.300696373E-1,-1.673390388E0,-2.106506348E0
5.439525755E1,8.954544365E-2,-9.826233387E-1,-1.270420551E0
5.449532191E1,1.697016060E-1,-5.620834827E-1,-2.744718075E0
5.459539091E1,-3.073636293E-1,6.465783119E-1,7.209348679E-1
5.469545781E1,5.877419114E-1,1.243348122E0,2.159302711E0
5.479552414E1,3.178127706E-1,7.551050186E-2,2.144938469E0
5.489558740E1,-1.610314250E-1,-1.497873545E0,-1.161192417E0
5.499565503E1,1.407694072E-2,-7.680048943E-1,-2.973480701E0
5.509572223E1,-1.594507247E-1,7.539210320E-1,-1.296881676E0
5.520569470E1,-1.007016659E0,1.812382221E0,2.084305763E0
5.530576183E1,-2.365792394E-1,1.379974365E0,5.436126709E0
5.540582949E1,-7.365991473E-1,-1.029636383E0,1.801023483E-1
5.550589232E1,1.015932858E-2,-7.274317741E-1,-2.470752239E0
5.560595949E1,-4.337467551E-1,1.393053532E-1,-7.982587814E-1
5.570602672E1,-3.615603149E-1,1.014445543E0,2.873454094E0
5.580609452E1,1.508531094E0,1.733540535E0,2.253014565E0
5.590616165E1,6.177541018E-1,-8.680677414E-1,1.218685150E0
5.600623208E1,-1.925753355E-1,-1.030441523E0,-3.013671398E0
5.610629961E1,-1.070936799E0,-6.996860504E-1,-2.688060760E0
5.620637284E1,-9.035633206E-1,9.010462761E-1,-1.221496105E0
5.630644083E1,-2.975815535E-1,1.729717731E0,2.507419586E0
5.640651186E1,1.025924802E0,-1.923080683E0,3.535943031E0
5.650657199E1,5.599610209E-1,-1.302054644E0,-3.335475922E0
5.660663879E1,3.082108498E-1,-8.490748405E-1,-1.832271576E0
5.670670872E1,-1.290817380E0,-9.749281406E-1,-1.622025490E0
5.680677688E1,8.444651365E-1,9.481959343E-1,2.055681229E0
5.690684048E1,1.740397811E-1,5.780215263E-1,3.366098404E0
5.700690081E1,-5.589673519E-1,-1.010480165E0,-8.644580841E-1
5.710696788E1,3.493145406E-1,-6.443274021E-1,-3.334788799E0
5.720703748E1,4.351526499E-2,7.309997082E-1,-3.670463562E-1
5.730710467E1,-1.100955248E0,1.638054371E0,9.692773819E-1
5.740717244E1,-4.546963871E-1,1.747999191E0,1.946571350E0
5.750723530E1,-9.185284972E-1,-2.826271296E0,-2.183724880E0
5.760730190E1,2.265278846E-1,-1.284890175E0,-1.022743225E0
5.770736843E1,2.931870520E-1,-2.611644268E-1,-2.610781670E0
5.780743666E1,1.859402508E-1,1.629190445E0,8.251152039E-1
5.790750422E1,8.300389647E-1,1.558012247E0,2.224322319E0
5.800757388E1,9.782105684E-2,-4.432790279E-1,2.837671280E0
5.810764104E1,-1.948321015E-1,-2.020080805E0,-1.815286160E0
5.820770831E1,5.485959053E-1,-3.041772842E-1,-3.167571545E0
5.830777241E1,8.501166105E-2,1.129263878E0,-1.217175484E0
5.840783950E1,-1.371086597E0,2.257755280E0,1.155755043E0
5.850790610E1,2.819131613E-1,4.120111465E-1,6.746830940E0
5.860797303E1,-4.876363277E-1,-2.220436573E0,-1.332659245E0
5.870804023E1,6.852836609E-1,-8.809053898E-1,-2.313886166E0
5.880810793E1,-1.319741160E-1,-2.343149185E-1,-1.882258415E0
5.890817580E1,1.068463683E0,1.385496616E0,3.085146904E0
5.900824286E1,7.559588552E-1,1.354854345E0,5.741912842E0
5.910831046E1,4.228618741E-2,-1.228410482E0,-4.473247528E-1
5.920837762E1,6.778182387E-1,-9.455502033E-1,-2.964912891E0
5.930844482E1,6.561100483E-3,3.005714417E-1,-1.992588043E0
5.940851722E1,-1.049013853E0,1.718312740E0,8.486213684E-1
5.950858345E1,6.987725496E-1,1.495773315E0,2.074448586E0
5.960864921E1,7.503727078E-2,-1.127390385E0,7.467298508E-1
5.970871054E1,-2.714605033E-1,-1.104312658E0,-7.514653206E-1
5.980878224E1,3.964755237E-1,-1.123202801E0,-2.620607853E0
5.990885050E1,-8.034311980E-2,1.579518318E-1,-1.114129066E0
6.000891766E1,1.291603088E0,1.973918915E0,1.316486359E0
6.010898506E1,-6.018189192E-1,8.362259865E-1,5.725914955E0
6.020905726E1,1.638175845E-1,-1.718261957E0,-3.212776184E-1
6.030912499E1,2.482764125E-1,-1.507195950E0,-3.735748291E0
6.040918815E1,-3.180075884E-1,4.609599113E-1,-9.684543610E-1
6.050925278E1,-1.405822158E0,2.028428555E0,1.136686325E0
6.060931848E1,3.234048486E-1,1.962140083E0,1.933425903E0
6.070939038E1,-9.252866507E-1,-2.039751291E0,-7.835683823E-1
6.080945514E1,-6.335802078E-1,-1.492731810E0,-1.569394588E0
6.090952524E1,-5.628548861E-1,-1.298104048E0,-3.401128292E0
6.100958767E1,-1.005526543E0,7.404766083E-1,1.724937439E0
6.110965466E1,1.308725715E0,2.207194328E0,-1.028199196E0
6.120971939E1,1.796146631E-1,5.677952766E-1,3.488674164E0
6.130978589E1,-3.689142466E-1,-2.176635742E0,-1.138956547E0
6.140985339E1,-1.482814789E0,-1.370104313E0,-1.048264980E0
6.150992048E1,3.133603334E-1,1.326152802E0,-1.098825455E0
6.160999348E1,-5.518802404E-1,2.257339001E0,2.139259338E0
6.171005991E1,-4.352447987E-1,1.710485458E0,2.365079880E0
6.181013301E1,-8.461244106E-1,-1.858795166E0,-1.460687160E0
6.191019487E1,-2.981698513E-1,-1.208546162E0,-6.641826630E-1
6.201026257E1,-1.048814505E-2,-6.725256443E-1,-2.558576584E0
6.211032400E1,-3.450545371E-1,1.152824879E0,1.580772400E0
6.221039070E1,6.217644215E-1,2.872723579E0,3.455846786E0
6.231046460E1,3.010234833E-1,1.443231106E-1,1.724128723E0
6.241053316E1,4.406744242E-2,-2.041747570E0,-1.654210091E0
6.251088502E1,2.822679281E-1,-7.171647549E-1,-2.383712292E0
6.261094459E1,-9.946775436E-2,1.276532650E0,-7.933411598E-1
6.271101088E1,-1.144077897E0,1.920024395E0,1.961619377E0
6.281107725E1,6.369983554E-1,6.713128090E-1,5.692926407E0
6.291114534E1,-9.913146496E-3,-2.166864157E0,-1.687781334E0
6.301121191E1,8.795425892E-1,-1.159195185E0,-1.237706184E0
6.311128377E1,-4.796132147E-1,-1.352040768E-1,-1.279888153E0
6.321135037E1,1.750707626E-1,2.115169525E0,2.962826729E0
6.331141760E1,1.273338795E-1,2.233565807E0,2.306283951E0
6.341148480E1,-1.538139582E0,-4.704773426E-1,2.397961617E0
6.351155090E1,-3.944512904E-1,-2.047264338E0,-1.831050396E0
6.361161662E1,1.052181005E0,-2.097992897E-1,-2.702326775E0
6.371167936E1,-2.729167640E-1,1.635756493E0,-9.543609619E-1
6.381174782E1,-3.880859911E-1,1.801977158E0,2.141143799E0
6.391181635E1,-2.857841253E-1,4.124727249E-1,3.611431122E0
6.401188322E1,6.955062747E-1,-1.781509638E0,-1.037566662E0
6.411195378E1,1.346884489E0,-5.498604774E-1,-2.980451107E0
6.421202108E1,-1.606591344E-1,2.473020554E-2,-1.441300869E0
6.431209581E1,-2.785452604E-1,1.105105877E0,2.917979240E0
6.441215957E1,-8.962807059E-2,1.955723286E0,1.583763123E0
6.451222547E1,-3.851549625E-1,-5.747551918E-1,3.277603149E0
6.461228510E1,2.772204578E-1,-1.812514067E0,-2.862196445E0
6.471235199E1,7.072284222E-1,9.733581543E-2,-2.155189037E0
6.481242142E1,-8.203483820E-1,1.198116779E0,-7.059988976E-1
6.491248939E1,-7.982505560E-1,1.279911518E0,1.058644295E0
6.501255709E1,-8.318140507E-1,-9.430980682E-2,3.098034859E0
6.511262298E1,-5.884810090E-1,-1.521412134E0,6.339273453E-1
6.521268938E1,3.577192426E-1,-1.170526981E0,-1.938350677E0
6.531276241E1,-2.736908197E-1,1.394548416E-1,-1.668006897E0
6.541282954E1,8.955073357E-1,1.567608356E0,1.247237206E0
6.551289568E1,-3.031941652E-1,1.980984688E0,1.994805336E0
6.561295520E1,-4.891333580E-1,-8.586311340E-1,1.089793205E0
6.571302237E1,1.454660892E0,-1.856788874E0,-3.114523411E0
6.581309060E1,-6.240035295E-1,-1.878705025E-1,-9.670763016E-1
6.591315920E1,-9.190254211E-1,1.402953625E0,-6.903419495E-1
6.601322619E1,1.265026033E-1,1.392481327E0,1.713227272E0
6.611329323E1,-9.673511386E-1,3.702902794E-1,4.807990074E0
6.621336106E1,-5.014631152E-1,-1.389793396E0,-1.598742962E0
6.631342832E1,1.596971601E-1,-1.283431768E0,-1.290925980E0
6.641349625E1,-3.397051096E-1,-4.749357700E-1,-1.138298512E0
6.651356175E1,1.073744297E0,1.630016327E0,1.999564171E0
6.661362825E1,-1.406637430E-1,2.958846569E0,2.818696022E0
6.671369954E1,3.258563578E-2,-2.186691761E-1,2.324039459E0
6.681376751E1,3.268151879E-1,-2.337779045E0,-2.713097572E0
6.691383521E1,-3.692584932E-1,-1.124357462E0,-2.009922981E0
6.701389724E1,-4.390612245E-1,8.562269211E-1,-5.446624756E-1
6.711396400E1,-8.339723349E-1,1.485416412E0,2.250849724E0
6.721403140E1,-1.907395244E0,9.781680107E-1,1.901374817E0
6.731409860E1,-6.283679008E-1,-1.506172180E0,-3.374891281E-1
6.741416613E1,1.315019369E0,-1.067330599E0,-1.963171005E0
6.751423619E1,1.079860806E0,-1.455693245E-1,-2.867395401E0
6.761430475E1,-5.491489172E-1,1.064751863E0,5.526739120E0
6.771437125E1,1.109553695E0,1.408883572E0,2.044011116E0
6.781443501E1,-3.843677044E-1,-5.748896599E-1,1.637496948E0
6.791450071E1,5.895397663E-1,-1.417864323E0,-2.174114227E0
6.801457661E1,3.315362334E-1,7.549524307E-2,-2.339690208E0
6.811464397E1,-2.673118114E-1,9.278063774E-1,2.222709656E-1
6.821471120E1,8.366355896E-1,1.121161461E0,8.548650742E-1
6.831477073E1,5.656534433E-1,-1.590490341E0,3.793391228E0
6.841484320E1,2.007297873E-1,-1.069705248E0,-2.608912468E0
6.851490882E1,4.237648845E-2,-8.533041477E-1,-2.764119625E0
6.861497452E1,-2.949120998E-1,4.920005798E-1,-9.968156815E-1
6.871503612E1,6.365427971E-1,1.793363094E0,1.452344894E0
6.881510478E1,-1.351167560E-1,1.051785231E0,5.113598824E0
6.891517318E1,3.759208620E-1,-1.558253765E0,-3.828449249E-1
6.901524145E1,7.137454748E-1,-1.227649927E0,-4.226265907E0
6.911530914E1,-3.609647155E-1,4.669690132E-1,-1.744917870E0
6.921537597E1,-1.101280093E0,1.619948864E0,1.299874306E0
6.931544221E1,-8.206127286E-1,1.125286102E0,1.185165405E0
6.941550890E1,-5.977610946E-1,-1.821052551E0,-1.322557926E0
6.951557503E1,2.716285586E-1,-8.594086170E-1,-2.175751686E0
6.961564133E1,2.977087796E-1,-1.226291656E-1,-1.324470520E0
6.971590292E1,7.285970449E-2,1.007784367E0,2.262783051E-1
6.981597104E1,2.645027339E-1,1.600463629E0,9.915180206E-1
6.991603908E1,-2.744978666E-2,-9.387397766E-2,2.751465797E0
7.001610617E1,5.188297629E-1,-1.799726248E0,-3.069225788E0
7.011617337E1,2.598828375E-1,-1.243816137E0,-2.425853252E0
7.021624043E1,-5.232859254E-1,8.506479263E-1,-8.531570435E-1
7.031630756E1,-2.462002277E0,2.067146301E0,1.600973129E0
7.041637419E1,-5.344864726E-1,1.287690163E0,6.885205269E0
7.051643999E1,-8.134061694E-1,-1.916617393E0,-2.138473034E0
7.061650602E1,2.116910368E-1,-1.640421152E0,-1.287733555E0
7.071657358E1,-1.127362847E-1,-7.621040344E-1,-2.059325218E0
7.081664211E1,7.184793949E-1,9.225945473E-1,-5.150260925E-1
7.091671108E1,8.673924208E-1,2.022415638E0,2.511873245E0
7.101677864E1,8.920127153E-1,2.946305275E-1,3.205663681E0
7.111684560E1,1.095023990E0,-1.091507673E0,-2.395370960E0
7.121691197E1,-1.871956140E-1,-1.089951754E0,-1.511091232E0
7.131697870E1,-2.475635111E-1,5.016350746E-1,-1.468409538E0
7.141704603E1,-1.475149155E0,2.080172062E0,1.085607529E0
7.151711219E1,-9.921408296E-1,1.347677708E0,5.000579834E0
7.161717802E1,-2.223882377E-1,-1.469471693E0,-1.446954727E0
7.171724539E1,8.609205484E-1,-8.678014278E-1,-1.188351154E0
7.181731342E1,-1.788213253E-1,-2.830488682E-1,-1.927454472E0
7.191738185E1,4.907369614E-1,1.567261219E0,2.802769661E0
7.201744865E1,7.279609442E-1,8.750801086E-1,2.370554924E0
7.211751584E1,7.183493376E-1,-1.333024979E0,3.366204262E0
7.221758304E1,3.712282181E-1,-1.473679066E0,-2.862978458E0
7.231765447E1,-2.348294258E-1,2.333507538E-1,-2.646531582E0
7.241772194E1,-8.362750411E-1,1.414073467E0,-6.536788940E-1
7.251778770E1,-5.764359236E-1,1.652023792E0,1.941254616E0
7.261784930E1,-5.346468091E-2,1.494221687E-1,3.690623283E0
7.271791679E1,-6.059740186E-1,-1.435640574E0,-1.080784321E0
7.281798522E1,5.523158312E-1,-1.154269695E0,-1.607150078E0
7.291805359E1,-2.309118658E-1,-3.703098297E-1,-2.391344547E0
7.301812015E1,8.975491524E-1,1.253729343E0,4.067755699E0
7.311818732E1,4.603106976E-1,1.918241978E0,3.433260918E0
7.321825444E1,1.665835977E-1,-7.251443863E-1,6.889019012E-1
7.331832791E1,5.069755912E-1,-1.441106796E0,-3.673640251E0
7.341839557E1,-5.545408130E-1,-3.481979370E-1,-1.775431156E0
7.351846144E1,-9.702358246E-1,1.067842484E0,-5.892710686E-1
7.361852110E1,-5.287121534E-1,1.187204838E0,1.466667175E0
7.371858697E1,-8.480601013E-2,-3.487396240E-1,4.743553162E0
7.381865850E1,-1.668723673E-1,-1.270775557E0,-1.791268349E0
7.391872669E1,9.291768074E-1,-6.421003342E-1,-1.729166031E0
7.401879456E1,-4.922813177E-2,-4.243516922E-2,-1.590503216E0
7.411885836E1,1.213243008E0,1.418023586E0,1.851012230E0
7.421893235E1,-5.281577110E-1,7.329492569E-1,6.438699722E0
7.431900038E1,-1.120258570E-1,-1.675524950E0,-3.708744049E-1
7.441906845E1,5.302113891E-1,-1.348567724E0,-3.980720043E0
7.451912804E1,-4.524536133E-1,-1.664586067E-1,-2.072057247E0
7.461919844E1,-9.558167458E-1,1.593281746E0,7.340621948E-1
7.471926884E1,-6.937338114E-1,2.241056442E0,1.100083351E0
7.481933637E1,-1.095628738E-1,-1.127583504E0,-1.196489334E-1
7.491939933E1,-2.286296636E-1,-1.508269310E0,-3.478918076E-1
7.501946823E1,-5.071619153E-2,-1.398054123E0,-3.121082306E0
7.511953539E1,-2.956182957E-1,-4.581928253E-2,-1.207129955E0
7.521960262E1,6.315364242E-1,2.149796963E0,3.200798035E-1
7.531966799E1,-3.348017335E-1,6.640915871E-1,4.493608475E0
7.541974198E1,9.961801767E-2,-1.214014053E0,-6.645698547E-1
7.551980855E1,-3.292065859E-2,-1.454341173E0,-1.820878506E0
7.561987128E1,-5.152548552E-1,1.483416557E-1,-1.901222706E0
7.571993907E1,-1.258731484E0,1.593872547E0,7.870759964E-1
7.582000760E1,-4.326859117E-1,1.624735355E0,1.440379143E0
7.592007533E1,1.599012315E-1,-1.386392593E0,3.731441498E-1
7.602013470E1,5.459185839E-1,-1.082875013E0,-1.692623615E0
7.612020069E1,4.602678716E-1,-7.982711792E-1,-2.162848949E0
7.622026782E1,-4.145436585E-1,7.011322975E-1,-5.186924934E-1
7.632033549E1,1.197525024E0,1.507841110E0,7.489128113E-1
7.642040285E1,1.325307488E-1,-4.451799393E-1,3.213031769E0
7.652046855E1,-2.864709496E-1,-1.365742207E0,-9.577956200E-1
7.662053578E1,1.933066249E-1,-4.039983749E-1,-2.729015350E0
7.672060270E1,-1.741919816E-1,8.005900383E-1,-1.794615746E0
7.682067143E1,-1.674093723E0,1.267086029E0,1.440681458E0
7.692073916E1,-4.623687267E-1,1.364326954E0,5.169163704E0
7.702088169E1,-4.813103080E-1,-1.416008949E0,-1.845334530E0
7.712094912E1,-4.991633594E-1,-1.051977396E0,-1.009791851E0
7.722101559E1,-6.349045038E-1,-1.814498901E-1,-1.432480335E0
7.732108275E1,2.218121290E-2,7.939767838E-1,1.864593506E0
7.742115312E1,5.148088932E-1,1.728780746E0,2.995029449E0
7.752121911E1,-3.200065494E-1,-3.582382202E-1,2.163063049E0
7.762128551E1,-1.868881583E-1,-1.475712299E0,-2.305880547E0
7.772134894E1,8.472442627E-3,-5.513310432E-1,-2.612095833E0
7.782141691E1,-4.764750004E-1,7.405514717E-1,-1.028875828E0
7.792148467E1,-2.509025335E-1,1.665537834E0,2.150444031E0
7.802155780E1,-1.176125646E0,1.031643391E0,5.419766426E0
7.812162553E1,4.251976609E-1,-1.426902294E0,-2.145297050E0
7.822169240E1,5.912832618E-1,-1.348408699E0,-9.865374565E-1
7.832175469E1,2.896830440E-1,-7.732391357E-1,-2.572202206E0
7.842182142E1,1.831112862E0,1.193937302E0,2.098383904E0
7.852188822E1,5.901347995E-1,1.912898540E0,5.511610031E0
7.862195335E1,1.974210739E-1,-5.956335068E-1,1.095690727E0
7.872202028E1,2.266820073E-1,-1.542711020E0,-4.208875656E0
7.882208801E1,-9.686330557E-1,-6.225414276E-1,-1.989238739E0
7.892215591E1,-1.840438843E0,1.657476902E0,7.286853790E-1
7.902222610E1,2.099534571E-1,3.186544895E0,2.074025154E0
7.912229337E1,-1.724976301E-1,-1.924183369E0,6.873922348E-1
7.922236223E1,-5.197746158E-1,-2.127059698E0,-1.517766476E0
7.932242686E1,4.183246493E-1,-1.563863993E0,-2.773083210E0
7.942249470E1,2.848159075E-1,1.982660294E-1,-8.435173035E-1
7.952256536E1,1.036414385E0,2.041328430E0,-3.092765808E-1
7.962263199E1,-1.147122502E0,6.182847023E-1,6.338051796E0
7.972269906E1,1.321474910E-1,-1.795261621E0,-1.372868061E0
7.982276102E1,4.901981354E-1,-1.525950193E0,-3.347964287E0
7.992282842E1,-5.867928267E-1,5.047607422E-1,-1.117985725E0
8.002289478E1,-1.730563402E0,1.764869690E0,1.492883682E0
8.012296184E1,-1.081608415E0,1.544393063E0,3.347645760E0
8.022302901E1,-4.604452252E-1,-1.202505350E0,-5.591197014E-1
8.032309627E1,1.030044556E-1,-1.085907221E0,-5.750350952E-1
8.042316374E1,5.492187738E-1,-7.004065514E-1,-2.314240456E0
8.052323400E1,1.229580045E0,7.409148216E-1,1.265599251E0
8.062330403E1,8.078017235E-1,1.967914104E0,1.811694145E0
8.072337093E1,5.715564489E-1,5.195803642E-1,3.856682777E0
8.082343633E1,6.427938342E-1,-1.715411425E0,-3.448268890E0
8.092350059E1,9.249120951E-1,-4.487609863E-1,-2.480798721E0
8.102356785E1,-2.033886909E0,3.326287270E-1,-1.212362766E0
8.112363365E1,-1.363195896E0,1.720306396E0,2.749112129E0
8.122370078E1,1.276493073E-1,-6.491618156E-1,5.215663910E0
8.133364081E1,-1.355636358E0,-1.482282162E0,-2.743205070E0
8.143371754E1,5.470833182E-2,-1.490251780E0,-2.205312252E0
8.153378384E1,-4.420666397E-2,-5.876626968E-1,-1.038945198E0
8.163398560E1,1.549638629E0,8.902878761E-1,8.961954117E-1
8.173404280E1,7.925808430E-2,1.069623709E0,4.865311623E0
8.183411143E1,1.708597541E-1,-1.149814367E0,-2.340049744E-1
8.193417756E1,8.956926465E-1,-1.140732050E0,-4.219182491E0
8.203424616E1,-3.906561136E-1,2.514886856E-1,-1.033770561E0
8.213431286E1,-1.033050418E0,1.723081112E0,6.074094772E-1
8.223438035E1,-1.005574465E0,2.088529587E0,2.551383018E0
8.233444825E1,4.574743509E-1,-1.276384115E0,-7.185740471E-1
8.243451478E1,9.710550308E-2,-1.596733809E0,-1.571876049E0
8.253458001E1,3.547486365E-1,-1.399968624E0,-2.964742184E0
8.263464448E1,5.066719651E-1,5.895857811E-1,1.322270393E0
8.273471551E1,1.032464147E0,2.448895454E0,1.727319717E0
8.283478950E1,-3.562547565E-1,1.095137596E-1,4.603962898E0
8.293485773E1,5.492367744E-1,-1.508128166E0,-2.388583660E0
8.303492776E1,3.012396097E-1,-1.192513227E0,-2.702467442E0
8.313498950E1,-4.227354527E-1,5.206542015E-1,-1.840033054E0
8.323505629E1,-9.815961719E-1,2.003636837E0,1.530078888E0
8.333511702E1,-5.035363436E-1,1.017688274E0,5.035124779E0
8.343518419E1,8.879500628E-2,-1.785813570E0,-1.109178543E0
8.353524972E1,2.631856203E-1,-1.498245716E0,-6.786060333E-1
8.363531808E1,-2.605413198E-1,-1.117476463E0,-2.309580803E0
8.373538518E1,8.088493943E-1,1.128134489E0,1.636884689E0
8.383545397E1,3.946527243E-1,2.777960777E0,3.230828285E0
8.393552390E1,-6.119787693E-2,-2.872180939E-2,2.664683342E0
8.403559087E1,1.098395348E0,-1.507051706E0,-2.936378479E0
8.413565766E1,2.410675287E-1,-5.156629086E-1,-2.751145840E0
8.423572066E1,-1.199886441E0,6.839170456E-1,-5.484628677E-1
8.433600857E1,-1.041409850E0,1.311572552E0,2.365253448E0
8.443607600E1,-1.293911338E-1,2.571058273E-1,5.518794060E0
8.453614736E1,-4.038492143E-1,-1.108136892E0,-1.409205914E0
8.463621439E1,3.148499131E-1,-1.348943233E0,-7.521009445E-1
8.473628149E1,-2.667161524E-1,-8.164663315E-1,-2.167250633E0
8.483634419E1,7.338004112E-1,1.086746216E0,1.702283859E0
8.493641268E1,-5.693286657E-1,1.854555607E0,6.346378326E0
8.503648525E1,-2.619552612E-2,-1.139653444E0,-1.606845856E-2
8.513655298E1,1.202496290E0,-1.378779650E0,-3.991948605E0
8.523661811E1,-8.617497087E-1,-4.170393944E-1,-2.002892971E0
8.533668227E1,-1.151577950E0,1.596170425E0,3.702964783E-1
8.543674904E1,-1.175536394E0,1.750311852E0,2.220441818E0
8.553681427E1,-4.582245946E-1,-9.328458309E-1,1.923771858E0
8.563687813E1,-2.241348624E-1,-2.179907322E0,-2.586642742E0
8.573694559E1,1.666581631E-2,-1.535228252E0,-3.040385723E0
8.583701402E1,3.081381321E-3,1.355676651E-1,-5.958251953E-1
8.593708245E1,1.137016058E0,1.687192917E0,1.815767288E-1
8.603715278E1,-2.701791525E-1,9.192488194E-1,5.270326614E0
8.613722025E1,5.998692513E-1,-1.436676979E0,-4.990692139E-1
8.623728691E1,5.809270144E-1,-1.226409197E0,-3.843861580E0
8.633735057E1,-1.014688373E0,5.040507317E-1,-1.380468845E0
8.643741797E1,-1.795777917E0,1.654054642E0,1.092712402E0
8.653748377E1,-2.583908439E-1,1.752935410E0,4.312736511E0
8.663755136E1,-5.713117123E-1,-1.626099110E0,-2.047801018E0
8.673761823E1,4.162394404E-1,-7.291188240E-1,3.416833878E-1
8.683769459E1,-2.983158231E-1,-7.232904434E-1,-1.976351261E0
8.693776122E1,6.118190289E-2,6.296916008E-1,4.299497604E-1
8.703782858E1,3.680612445E-1,1.947252750E0,1.126775742E0
8.713788761E1,3.990532160E-1,-3.085916042E-1,4.023742676E0
8.723795478E1,1.202595472E0,-1.808782101E0,-2.762504578E0
8.733802174E1,3.918690681E-1,-8.449318409E-1,-3.625535488E0
8.743808911E1,-1.009035110E0,6.698384285E-1,-3.471670151E-1
8.753815494E1,-1.145792127E0,1.583140850E0,1.603250504E0
8.763822433E1,-4.826452136E-1,8.772120476E-1,5.106029510E0
8.773829153E1,-1.199515760E-1,-1.280720472E0,-5.596981049E-1
8.783836000E1,5.161617994E-1,-6.680603027E-1,-6.832914352E-1
8.793842576E1,2.138940990E-1,-3.655836582E-1,-1.820727825E0
8.803849259E1,5.420361757E-1,3.491792679E-1,1.434919357E0
8.813855952E1,-2.064726949E-1,1.226239681E0,3.178474426E0
8.823862605E1,5.008374453E-1,6.032752991E-2,2.912653923E0
8.833869335E1,-7.790412903E-1,-1.851377964E0,-3.151846886E0
8.843876078E1,-3.251454830E-1,-2.067365646E-1,-2.427467823E0
8.854876574E1,-1.643641710E0,1.197851658E0,9.077062607E-1
8.864883224E1,-1.031437755E0,1.401355267E0,2.677736282E-1
8.874889957E1,-2.613641918E-1,-1.132448912E0,3.435434341E0
8.884903994E1,-4.510285854E-1,-1.445075989E0,-1.163307667E0
8.894910790E1,4.217975140E-1,-1.001584530E0,-2.594499111E0
8.904917516E1,-1.899804771E-1,-2.473850250E-1,4.438428879E-1
8.914924843E1,7.963778973E-1,1.413186073E0,1.356513977E0
8.924932046E1,-8.454632163E-1,-2.657961845E-1,1.753715515E0
8.934938722E1,5.143370628E-1,-1.490131617E0,-7.622661591E-1
8.944944362E1,7.077413797E-1,-6.325826645E-1,-3.894764900E0
8.954950342E1,-1.757711291E0,6.481518745E-1,-1.082498074E0
8.964957435E1,-8.524797559E-1,1.604798317E0,2.272163391E0
8.974964221E1,-2.097489357E0,5.710043907E-1,4.172945976E0
8.984971154E1,-1.275722384E-1,-1.067001820E0,1.179518700E-1
8.994977491E1,4.137905240E-1,-1.960866690E0,-4.160170555E0
9.004984127E1,-1.864214838E-1,-5.136857033E-1,-3.016962528E0
9.014990814E1,1.683186889E0,1.662047863E0,1.921911240E0
9.024997784E1,1.527302623E0,2.079737663E0,1.207630157E0
9.035004470E1,-9.370275736E-1,-1.192872047E0,4.176139832E0
9.045011200E1,-2.584470034E0,-1.064653158E0,-3.140113831E0
9.055017473E1,-6.445369720E-1,2.420015335E-1,3.106527328E-1
9.065024196E1,-1.839807630E-1,9.685463905E-1,2.838217735E0
9.075031809E1,-3.589798808E-1,1.127153397E0,4.414330482E0
9.085038735E1,4.897519052E-1,-1.145686865E0,4.142370224E-1
9.095045698E1,-1.292462647E-1,-2.262855291E0,-3.504118443E0
9.105051501E1,-5.668350458E-1,-1.194794178E0,-3.071890354E0
9.115058231E1,9.291772842E-1,7.338199615E-1,5.686950684E-1
9.125064690E1,1.458983779E0,1.693776131E0,1.861951828E0
9.135071417E1,-1.562130451E-1,4.555659294E-1,3.172113419E0
9.145078106E1,9.143645167E-1,-1.855091333E0,-1.034529209E0
9.155094228E1,5.971481204E-1,-1.193560600E0,-1.458178997E0
9.165100954E1,-4.115626812E-1,-1.038823128E-1,-2.011527538E0
9.175108141E1,-9.726348519E-1,1.538000584E0,1.218385696E-1
9.185115120E1,-5.581203699E-1,1.722754478E0,1.197050095E0
9.195121813E1,6.924528480E-1,1.514720917E-1,1.836374283E0
9.205128400E1,-9.537364244E-1,-1.667194128E0,-2.159157276E0
9.215135313E1,-1.253947616E-1,-1.584687471E0,-3.731332302E0
9.225142046E1,-4.348164797E-2,8.062887192E-2,-1.498538017E0
9.235148449E1,1.252117157E0,1.507813931E0,3.260384560E0
9.245154902E1,2.264904976E-2,1.298555851E0,2.248048782E0
9.255161429E1,-6.920053959E-1,-4.254829884E-1,1.265988350E0
9.265168079E1,3.154929876E-1,-1.253871918E0,-2.800377846E0
9.275174792E1,-4.156870246E-1,-1.793599129E-1,-2.024497509E0
9.285181688E1,-5.211774111E-1,4.546971321E-1,1.997661591E-2
9.295188438E1,-7.091336250E-1,1.250806808E0,1.547206879E0
9.305195148E1,1.921504974E0,1.710996628E-1,7.069711685E-1
9.315201977E1,-1.185684502E-1,-1.373394489E0,-1.690634251E0
9.325208764E1,-6.948864460E-1,-1.829008341E0,-3.607295036E0
9.335215487E1,-3.558673263E-1,3.172879219E-1,-7.092466354E-1
9.345222086E1,2.807655334E-1,2.423818111E0,1.093149185E0
9.355228546E1,2.367726564E-1,1.234165192E0,3.160634041E0
9.365235696E1,-5.059309602E-1,-1.427557468E0,-4.329690933E-1
9.375242376E1,1.981891394E-1,-1.045687675E0,-4.208504677E0
9.385249272E1,3.975173235E-1,8.006324768E-1,-9.491853714E-1
9.395255522E1,4.758470058E-1,8.047046661E-1,1.952157021E0
9.405262272E1,-1.165211439E0,2.259510994E0,5.041518211E0
9.415269035E1,-1.312612295E-1,-1.192057133E0,2.068004608E-1
9.425275788E1,-2.915889621E-1,-2.417983770E0,-3.892452240E0
9.435282491E1,1.934675276E-1,-9.448876381E-1,-2.492084026E0
9.445289161E1,1.366766214E0,1.128864288E0,1.996886253E0
9.455295720E1,-4.976487756E-1,2.168753147E0,4.109498024E0
9.465302393E1,4.603266716E-1,-2.971274853E-1,2.137453079E0
9.475309096E1,6.790170074E-1,-1.982857943E0,-4.070380688E0
9.485315913E1,4.152773619E-1,-3.050169945E-1,-2.874119759E0
9.495322666E1,-9.231731296E-1,1.137981892E0,4.253511429E-1
9.505329332E1,-1.259570122E-1,2.575948238E0,7.234765053E0
9.515336029E1,-2.736040354E-1,-8.158307076E-1,-1.881484985E-1
9.525342752E1,-4.033871889E-1,-1.840291023E0,-2.562154293E0
9.535349738E1,-6.590355039E-1,-1.065537453E0,-3.288884640E0
9.545356488E1,-5.380862951E-2,6.756615639E-1,-1.731481552E-1
9.555363028E1,2.656593919E-1,2.058595657E0,1.123992920E0
9.565369564E1,-1.386395931E0,4.403204918E-1,7.392019272E0
9.575376294E1,1.224523902E0,-1.580102682E0,-3.097251892E0
9.585383173E1,1.032344699E-1,-1.513593674E0,-3.969880104E0
9.595389806E1,-9.035918713E-1,4.384136200E-2,-1.385145187E0
9.605396500E1,-1.482630610E0,1.294239521E0,2.531172752E0
9.615403219E1,-2.315088034E0,1.762759209E0,3.557204247E0
9.625410209E1,2.794940472E-1,-8.937530518E-1,8.643083572E-1
9.635416949E1,4.949487448E-1,-2.098394156E0,-3.048280239E0
9.645423629E1,7.481123805E-1,-1.290649414E0,-3.010999203E0
9.655430292E1,7.513621449E-1,6.932592392E-1,2.263990402E0
9.665436941E1,1.778318882E-1,2.855024815E0,3.499515533E0
9.675443691E1,-7.174778581E-1,3.512711525E-1,4.442018509E0
9.685450221E1,1.979608893E0,-1.825902939E0,-3.571866512E0
9.695457300E1,-3.859586716E-1,-1.651166201E0,-3.863615513E0
9.705463987E1,-1.201632619E0,6.014513969E-1,-1.306977272E0
9.715470727E1,-2.055880308E0,1.944450378E0,3.262645721E0
9.725477183E1,-3.154653311E-2,7.532224655E-1,4.059513092E0
9.735483966E1,-3.641622365E-1,-1.570566654E0,-1.703628540E0
9.745490653E1,3.814232349E-2,-1.563604593E0,-3.227527142E0
9.755497149E1,-3.936563730E-1,-2.949118614E-1,-1.613988400E0
9.765504398E1,-5.075122714E-1,8.991026878E-1,2.963040352E0
9.775511112E1,-4.689514637E-2,9.567031860E-1,5.244280815E0
9.785518711E1,3.624168932E-1,-8.113906384E-1,-1.882152557E-1
9.795524844E1,5.621293783E-1,-9.358942509E-1,-3.504169464E0
9.805531631E1,-7.669186592E-1,1.844258308E-1,-1.692543983E0
9.815538020E1,-1.037870049E0,1.202962399E0,-9.393692017E-2
9.825544724E1,-8.607306480E-1,1.793151855E0,4.015224457E0
9.835551323E1,-8.820392489E-1,-1.095790863E0,4.446001053E-1
9.845557636E1,-4.723666310E-1,-1.693078518E0,-2.127603054E0
9.855564633E1,-3.750076890E-1,-1.129696131E0,-2.793143749E0
9.865571336E1,-9.816898406E-2,2.954707146E-1,-1.703538895E-1
9.875578442E1,6.156245470E-1,1.617805004E0,2.138453484E0
9.885581638E1,-6.345463991E-1,-1.204936504E-1,6.628832817E0
9.895588601E1,1.150387287E0,-1.320928335E0,-2.786885262E0
9.905595038E1,9.327335358E-1,-1.012040615E0,-4.373204231E0
9.915601704E1,-8.265348077E-1,2.846584320E-1,-5.142087936E-1
9.925608194E1,-2.515160322E0,2.257621288E0,1.222516060E0
9.935614880E1,-1.789402604E0,1.328525543E0,5.775527954E0
9.945621477E1,7.502371073E-2,-1.233564615E0,1.869144440E-1
9.955628000E1,-4.749902487E-1,-1.810730457E0,-1.824655533E0
9.965634736E1,4.302366674E-1,-9.087128639E-1,-2.823132515E0
9.975641486E1,1.448411703E0,9.569501877E-1,3.138577461E0
9.985648766E1,2.610406280E-1,1.540016651E0,3.638330460E0
9.995655492E1,-5.700985193E-1,-6.492750645E-1,2.127196312E0
1.000566221E2,1.438281894E0,-1.395485401E0,-4.526685238E0
1.001566895E2,-8.073890209E-1,6.437015533E-2,-2.667390823E0
1.002567595E2,-4.647701681E-1,1.913130283E0,4.306850433E-1
1.003568290E2,-1.441756785E-1,2.044190884E0,3.037606239E0
1.004568932E2,1.022858620E0,-6.609625816E-1,1.361463547E0
1.005569544E2,-1.915496588E-1,-1.691600800E0,-2.835314751E0
1.006570194E2,-7.867531776E-1,-1.631729126E0,-2.832016945E0
1.007570855E2,3.285636306E-1,2.840995789E-1,4.274358749E-1
1.008571552E2,5.644588470E-1,1.197180748E0,1.852355003E0
1.009572219E2,-1.269255579E-1,4.002242088E-1,3.871925354E0
1.010572905E2,4.566334486E-1,-1.337081671E0,-1.620019913E0
1.011573569E2,2.905592322E-3,-9.911527634E-1,-4.206694126E0
1.012574243E2,-3.799955845E-1,7.185311317E-1,-8.526458740E-1
1.013574945E2,-1.353089094E0,1.681988716E0,1.317934036E0
1.014575615E2,-1.292693019E0,1.127448082E0,5.168634415E0
1.015576268E2,7.482579350E-1,-1.058377743E0,-7.844915390E-1
1.016576904E2,5.639687181E-2,-2.222123146E0,-3.236109257E0
1.017577604E2,-4.779258072E-1,-1.697030067E-1,-9.040579796E-1
1.018578333E2,7.535406351E-1,9.166960716E-1,8.750066757E-1
1.019578995E2,8.467335701E-1,1.539344311E0,3.068901062E0
1.020579635E2,4.308833182E-1,-6.384115219E-1,1.831174850E0
1.021580266E2,8.229073286E-1,-1.020768404E0,-3.194361210E0
1.022580992E2,5.459606647E-2,-5.790996552E-2,-2.314658642E0
1.023581666E2,-1.073172569E0,1.239673615E0,3.071765900E-1
1.024582340E2,-1.486824989E0,1.740128994E0,2.699898720E0
1.025582937E2,-3.928442299E-1,-8.010048866E-1,4.268202782E0
1.026583603E2,7.723171264E-2,-1.819185734E0,-1.922801971E0
1.027584322E2,-1.154838502E-1,-1.757355690E0,-3.399827957E0
1.028585037E2,-9.341728091E-1,2.221064568E-1,-2.561187744E-2
1.029585732E2,6.659820080E-1,1.448502541E0,1.636722565E0
1.030672421E2,-4.555668533E-1,6.717834473E-1,2.701606750E0
1.031736464E2,-5.076543689E-1,-9.392020702E-1,9.461154938E-1
1.032800493E2,7.200351954E-1,-1.134517908E0,-4.620386600E0
1.033888535E2,-1.132261157E-1,3.530797958E-1,-1.819398403E0
1.034889214E2,-1.148247719E0,2.330616474E0,3.238564491E0
1.035889917E2,-9.295260906E-1,2.171829224E0,4.215857506E0
1.036890575E2,1.831746101E-1,-1.256685972E0,-1.088302135E0
1.037891261E2,-8.898140192E-1,-2.544270992E0,-2.439246178E0
1.038891900E2,-4.052940607E-1,-1.580817938E0,-2.780616760E0
1.039892578E2,6.041498184E-1,9.446172714E-1,2.752723694E0
1.040893229E2,1.700508833E0,2.823651314E0,2.472815514E0
1.041893900E2,-7.083684206E-2,1.039774418E-1,2.421635628E0
1.042894647E2,-1.856263876E-1,-1.485655785E0,-1.878716946E0
1.043895317E2,-8.137288690E-2,-1.342816591E0,-4.271516800E0
1.044896008E2,4.079991579E-2,7.697806358E-1,-1.147804260E0
1.045896592E2,-9.721038342E-1,1.712131977E0,2.078742981E0
1.046897258E2,-1.248542517E-1,1.070777416E0,6.208433151E0
1.047897910E2,-3.293799162E-1,-1.663327694E0,-2.060710430E0
1.048898599E2,-6.782792509E-2,-1.756954432E0,-2.913455486E0
1.049899281E2,-3.871999979E-1,-1.202892065E0,-1.442250252E0
1.050900011E2,1.667836308E0,9.559731483E-1,1.439058304E0
1.051900684E2,4.379806519E-1,2.358239651E0,3.428611755E0
1.052901350E2,1.561076522E0,3.339161873E-1,1.932691574E0
1.053901963E2,9.470180273E-1,-1.542386293E0,-3.004015446E0
1.054902622E2,2.762176394E-1,-4.749054909E-1,-2.749004841E0
1.055903282E2,-1.383646250E0,1.345654011E0,8.019838333E-1
1.056903955E2,-1.588152170E0,2.776128292E0,2.298308372E0
1.057904629E2,-1.418808699E-1,-3.819971085E-1,3.932986259E0
1.058905320E2,-5.822967291E-1,-2.262176037E0,-2.665832996E0
1.059905997E2,2.839858830E-1,-1.765572548E0,-2.702805042E0
1.061004933E2,9.474289417E-1,9.205102921E-2,-1.290168285E0
1.062005598E2,1.031444550E0,1.714852333E0,1.700251579E0
1.063006262E2,-4.071124196E-1,7.316331863E-1,4.219155312E0
1.064006913E2,5.363154411E-2,-1.007584333E0,7.424373627E-1
1.065007575E2,-1.671460867E-1,-2.079364061E0,-3.939372540E0
1.066008239E2,-5.196447372E-1,-1.322212219E-1,-2.246814251E0
1.067008908E2,-1.934075117E0,2.629804611E0,3.167813301E0
1.068009589E2,-1.148995399E0,2.831902504E0,5.686096191E0
1.069010271E2,-1.664676666E-1,-2.073516607E0,-9.975347519E-1
1.070010944E2,-1.533476114E0,-2.313992739E0,-2.175897121E0
1.071011643E2,-1.454165429E-1,-1.523423433E0,-3.559767723E0
1.072012381E2,1.145889759E0,8.949189186E-1,-1.950731277E-1
1.073013053E2,1.247974157E0,2.529518604E0,2.164504051E0
1.074013695E2,-1.635384560E-2,5.670261383E-2,4.206853867E0
1.075014296E2,4.104233384E-1,-1.836387634E0,-2.261492252E0
1.076014961E2,3.119500875E-1,-1.381461382E0,-4.531474590E0
1.077015656E2,-1.340625763E0,6.695690155E-1,-2.779941559E-1
1.078016327E2,-1.335695028E0,3.408442497E0,4.826435089E0
1.079017005E2,-5.872809887E-2,1.430253983E0,2.600413322E0
1.080017652E2,-8.715676665E-1,-2.087973595E0,-1.033841133E0
1.081018324E2,-4.579292536E-1,-2.718659163E0,-2.786859512E0
1.082019003E2,1.793016791E-1,-1.202639103E0,-3.355868340E0
1.083019675E2,1.160452962E0,1.532278538E0,3.113812447E0
1.084020357E2,1.008365870E0,2.222964764E0,5.433785439E0
1.085021013E2,1.058938622E0,-9.886677265E-1,-1.449107170E0
1.086021672E2,4.892590046E-1,-1.333171129E0,-3.201047897E0
1.087022351E2,-1.025892019E0,2.825543880E-1,-1.941881180E0
1.088023069E2,-7.742133737E-1,3.014152050E0,2.029182434E0
1.089023753E2,-7.268724442E-1,1.675926208E0,3.274715424E0
1.090024424E2,2.290887833E-1,-1.174278736E0,1.427449226E0
1.091025107E2,-1.050107479E0,-1.886022329E0,-2.397392750E0
1.092025781E2,5.307326317E-1,-1.067848921E0,-3.966909409E0
1.093026484E2,8.039474487E-2,9.416418076E-1,6.041135788E-1
1.094027125E2,4.357392788E-1,1.921319485E0,2.326755524E0
1.095027787E2,2.616353035E-1,8.356237411E-1,6.993511200E0
1.096028394E2,-1.959919930E-2,-1.770934820E0,-2.362143040E0
1.097029045E2,-6.028389931E-1,-1.787625790E0,-2.908987522E0
1.098029731E2,-9.139705300E-1,6.739563942E-1,-4.318141937E-2
1.099030416E2,-1.098589301E-1,2.315857410E0,2.393077850E0
1.100031088E2,-1.319471717E0,1.077174187E0,4.261047363E0
1.101031757E2,-3.858122230E-2,-1.516144753E0,8.054504395E-1
1.102032426E2,5.464602113E-1,-1.271697044E0,-3.555251598E0
1.103032515E2,-1.872911155E-1,-5.973951817E-1,-1.403852463E0
1.104033181E2,4.365425408E-1,1.027320862E0,4.346075058E-1
1.105033852E2,6.836795211E-1,1.671591759E0,3.151329041E0
1.106035101E2,-5.509436131E-1,-7.310171127E-1,5.956430435E-1
1.107035816E2,1.312052608E-1,-1.462068796E0,-2.011290550E0
1.108036488E2,3.011429310E-1,-5.215606689E-1,-3.852089882E0
1.109037161E2,-5.296791792E-1,1.729957581E0,-6.505651474E-1
1.110037856E2,-1.296556711E0,1.906776428E0,4.891043663E0
1.111038528E2,-3.943974376E-1,-1.038487196E0,8.165206909E-1
1.112039213E2,1.138637543E0,-1.711955070E0,-3.900403976E0
1.113039817E2,-1.023345470E0,-1.811147451E0,-2.887971878E0
1.114040486E2,7.403799891E-1,1.073118687E0,1.462535858E-1
1.115041136E2,6.428758502E-1,2.363651276E0,2.488089561E0
1.116041845E2,4.243731499E-2,1.777286530E-1,3.976258278E0
1.117042530E2,6.300488114E-1,-1.889176846E0,-1.168960094E0
1.118043209E2,2.739335299E-1,-1.994194984E0,-3.943336964E0
1.119043849E2,-2.331900597E-1,8.195123672E-1,-1.453075886E0
1.120044508E2,-4.769642949E-1,3.039253712E0,1.933146477E0
1.121045192E2,-9.598736763E-1,1.279720783E0,4.994984627E0
1.122045879E2,-9.889119864E-1,-1.948975086E0,-1.355721474E0
1.123046552E2,-1.083625555E0,-2.106474400E0,-1.991603374E0
1.124047215E2,-4.130486250E-1,-6.349360943E-1,-2.034078598E0
1.125047872E2,1.136938930E0,2.001060486E0,6.592054367E-1
1.126048595E2,3.829097748E-1,2.365447044E0,1.658185959E0
1.127049315E2,6.533980370E-1,8.906507492E-2,3.469987869E0
1.128050004E2,2.856720090E-1,-2.217204094E0,-3.502074718E0
1.129050621E2,3.647416830E-1,-4.516720772E-1,-3.190579891E0
1.130051247E2,-3.315034509E-1,1.636846542E0,-3.994083405E-1
1.131051893E2,-8.906608820E-1,1.949704170E0,1.257791519E0
1.132052568E2,4.551281333E-1,-8.486580849E-1,2.759899139E0
1.133059939E2,-1.462460756E-1,-2.077402592E0,-1.013054371E0
1.134060633E2,1.684615612E-1,-1.388119459E0,-2.892829418E0
1.135061331E2,2.186501622E-1,1.227846622E0,-4.388532639E-1
1.136062049E2,5.183188319E-1,2.130192280E0,2.391677856E0
1.137062696E2,-7.917603254E-1,-5.809445381E-1,2.799718857E0
1.138063370E2,4.159435034E-1,-1.491511106E0,-6.149349213E-1
1.139063992E2,-7.600216866E-1,-1.900541544E0,-4.578923225E0
1.140064669E2,-2.296757698E-2,6.793999672E-1,-2.122868538E0
1.141065315E2,-1.294728160E0,2.876928806E0,3.822178841E0
1.142065991E2,6.809186935E-2,1.031048298E0,5.993840218E0
1.143066757E2,-9.176816344E-1,-2.012870550E0,-1.462661743E0
1.144067425E2,-1.173954129E0,-2.029587507E0,-3.191632748E0
1.145068083E2,-3.488568068E-1,-2.204904556E-1,-2.043445587E0
1.146068638E2,9.319561124E-1,1.387960434E0,1.743363380E0
1.147069340E2,1.133313179E-1,1.813254595E0,3.109972000E0
1.148070022E2,1.344197989E-2,-7.402672768E-1,6.744575500E-2
1.149070728E2,1.116786242E0,-1.259680033E0,-3.785400391E0
1.150071371E2,1.367102265E-1,1.816864014E-1,-2.898255825E0
1.151072050E2,-9.225753546E-1,1.979804993E0,1.120536804E0
1.152072701E2,-3.205402493E-1,2.178637981E0,2.871353149E0
1.153073368E2,7.904103398E-2,-9.943559170E-1,1.330811501E0
1.154074033E2,-6.964468211E-2,-2.031533957E0,-2.901345253E0
1.155074697E2,1.711232960E-2,-1.713711977E0,-2.880300522E0
1.156075359E2,-4.453281164E-1,4.122548103E-1,-5.433053970E-1
1.157076074E2,1.270178318E0,2.350331783E0,3.103138924E0
1.158076765E2,-3.953328431E-1,5.485374928E-1,3.695904732E0
1.159077446E2,-2.943283319E-1,-1.159325123E0,-1.332159996E0
1.160078074E2,4.008708894E-1,-1.356743097E0,-4.565012455E0
1.161078736E2,-8.115019798E-1,2.034263611E-1,-2.694226265E0
1.162079407E2,-1.422472477E0,2.179376125E0,3.660594940E0
1.163080078E2,9.301530123E-1,2.280831814E0,2.868844986E0
1.164080750E2,-6.147999167E-1,-1.599944115E0,1.835517883E-1
1.165081411E2,2.325890809E-1,-2.772128105E0,-3.319687366E0
1.166082091E2,6.374340653E-1,-1.286235809E0,-3.432353497E0
1.167082761E2,1.425476670E-1,9.851303101E-1,3.636349678E0
1.168083442E2,8.085284233E-1,2.258991480E0,3.943049431E0
1.169084104E2,3.217695355E-1,5.675935745E-1,4.981241226E-1
1.170084838E2,6.212216616E-2,-8.958613873E-1,-3.170864582E0
1.171085510E2,-7.920210361E-1,-9.580230713E-2,-2.485930920E0
1.172086183E2,-1.865673900E0,1.832486391E0,1.580604553E0
1.173086797E2,3.476342559E-2,1.691007137E0,2.409458160E0
1.174087468E2,-7.076486945E-1,-1.235902786E0,2.512733459E0
1.175088165E2,3.073043525E-1,-1.391212940E0,-8.760409355E-1
1.176088820E2,2.202085853E-1,-8.067190647E-1,-2.592013836E0
1.177089502E2,-1.361711025E-1,-2.078104019E-2,-1.289692402E0
1.178090152E2,2.924572825E-1,1.375161648E0,2.183999062E0
1.179090831E2,-4.825314879E-1,5.243082047E-1,2.488473892E0
1.180091489E2,8.297988772E-2,-9.214351177E-1,3.637876511E-1
1.181092157E2,-1.416206360E-2,-8.723886013E-1,-3.855433941E0
1.182092867E2,8.218116164E-1,8.167014122E-1,-2.017237663E0
1.183093627E2,1.447606206E0,1.347669125E0,-6.612277031E-1
1.184094309E2,1.286328137E-1,6.324257851E-1,2.906659126E0
1.185094941E2,1.429609954E-1,-1.005034685E0,1.440882683E0
1.186095518E2,7.772800326E-1,-5.406024456E-1,-6.296510696E0
1.187096175E2,7.019156218E-2,6.797852516E-1,-1.082701206E0
1.188096850E2,4.369886518E-1,7.128925323E-1,3.050200462E0
1.189097530E2,-3.173545003E-2,3.140687943E-2,4.105545044E0
1.190098208E2,3.519505858E-1,-9.633865356E-1,-1.499596596E0
1.191098880E2,2.037397623E-1,-1.007077217E0,-2.799037457E0
1.192099558E2,-5.151122808E-1,7.770442963E-2,-1.185199261E0
1.193100262E2,6.220108271E-2,1.756597996E0,1.832682610E0
1.194101011E2,-4.242698550E-1,5.188007355E-1,3.847155571E0
1.195101665E2,-7.409204245E-1,-1.356252193E0,2.129096985E-1
1.196102290E2,-2.202683687E-2,-1.160856247E0,-2.724608421E0
1.197102888E2,7.430103421E-2,-4.740142822E-2,-2.141937733E0
1.198103566E2,4.393175244E-1,1.300044537E0,1.512951851E0
1.199104249E2,2.461874485E-1,8.653492928E-1,2.980841637E0
1.200104917E2,3.631887436E-1,-4.921650887E-1,1.350399017E0
1.201105592E2,2.231978774E-1,-1.419622660E0,-2.356456280E0
1.202106263E2,-1.981077492E-1,-4.006607533E-1,-3.326003075E0
1.203106934E2,-1.493728906E-1,1.896003723E0,6.089048386E-1
1.204107607E2,8.770943880E-1,1.859958649E0,1.794528008E0
1.205108333E2,-4.304832816E-1,-3.380289078E-1,2.882630348E0
1.206207503E2,-3.415924013E-1,-1.909878731E0,-1.510189056E0
1.207208174E2,3.967790008E-1,-1.501306772E0,-2.877717495E0
1.208208794E2,-8.031743169E-1,5.292565823E-1,-3.677740097E-1
1.209209474E2,-7.651698589E-2,1.044511795E0,1.443742752E0
1.210210155E2,-3.053337336E-1,8.435752392E-1,5.337051392E0
1.211210833E2,7.900018096E-1,-8.179214001E-1,-4.905500412E-1
1.212211511E2,1.408025622E-1,-1.466054440E0,-3.602976322E0
1.213212170E2,-2.760943770E-1,2.067942619E-1,-2.280232430E0
1.214212846E2,-9.633276463E-1,1.740366936E0,2.279326439E0
1.215213497E2,-3.658595681E-1,1.073297024E0,2.206357956E0
1.216214158E2,7.628275752E-1,-8.250861168E-1,8.098039627E-1
1.217214817E2,2.986869514E-1,-1.730567932E0,-2.706446171E0
1.218215501E2,7.684552670E-1,3.514313698E-1,-2.110757828E-1
1.219216187E2,-8.270435333E-1,1.229238510E-1,-8.336200714E-1
1.220216883E2,8.462322354E-1,5.084290504E-1,8.597307205E-1
1.221217557E2,-1.282364011E0,2.088003159E-1,4.190920830E0
1.222218218E2,-1.153579712E0,-1.358292341E0,-2.725687027E-1
1.223218867E2,7.811025977E-1,-1.548498154E0,-3.861421108E0
1.224219602E2,2.638309002E-1,9.061951637E-1,-3.386959076E0
1.225220267E2,-1.377448678E0,2.391807556E0,3.676191330E0
1.226220926E2,-6.833587885E-1,1.286874294E0,4.018494606E0
1.227221536E2,3.436774015E-2,-1.702300072E0,-4.568099976E-3
1.228222218E2,-9.032012224E-1,-2.026832819E0,-2.490487099E0
1.229222902E2,1.364514828E-1,-7.728457451E-1,-2.694771767E0
1.230223579E2,8.859301805E-1,8.327016830E-1,2.887722015E0
1.231224257E2,1.106106400E0,2.490226269E0,2.060405731E0
1.232224984E2,1.290194392E-1,-2.374558449E-1,1.084806442E0
1.233225693E2,-6.657838821E-2,-1.484666109E0,-1.335004807E0
1.234226360E2,3.134756684E-1,-8.871726990E-1,-4.206161499E0
1.235226965E2,-3.247295618E-1,1.120454311E0,9.918584824E-1
1.236227614E2,-1.254724741E0,1.466214180E0,2.041324615E0
1.237228286E2,2.602200806E-1,4.658470154E-1,3.752486229E0
1.238228964E2,-2.803392410E-1,-1.721813440E0,-1.507481575E0
1.239229612E2,3.210881352E-1,-1.649958611E0,-2.037495613E0
1.240230289E2,6.110966206E-3,-2.999043465E-1,-2.473907471E0
1.241230964E2,2.402634621E-1,1.939786911E0,2.473095894E0
1.242231633E2,-3.853844702E-1,1.576903343E0,4.233143806E0
1.243232298E2,-2.425365448E-1,-1.410178900E0,2.969845772E0
1.244232966E2,1.821756810E-1,-1.696274519E0,-4.149095058E0
1.245233625E2,3.143457174E-1,2.207145691E-1,-4.008762836E0
1.246234292E2,-5.837529302E-1,1.369810581E0,1.997277260E0
1.247235030E2,-7.830892503E-2,2.147841454E0,2.945837021E0
1.248235042E2,-3.823230565E-1,-1.655484676E0,1.407324791E0
1.249235749E2,3.076822162E-1,-1.420168161E0,-2.047964096E0
1.250236389E2,-3.102351427E-1,-1.312320948E0,-2.137740612E0
1.251237735E2,-9.439425468E-1,1.199226379E-1,-2.656936646E-1
1.252238375E2,9.092266560E-1,1.739989281E0,2.282950401E0
1.253239013E2,-3.161367178E-1,5.452232361E-1,4.768450737E0
1.254239696E2,-1.124371588E-1,-1.681752682E0,-5.600872040E-1
1.255240355E2,5.728163719E-1,-1.162934780E0,-4.171140671E0
1.256241017E2,-9.353984594E-1,1.512444019E0,-2.025956631E0
1.257241677E2,-5.423006415E-1,2.002265453E0,4.956474304E0
1.258242360E2,6.090521812E-1,-1.867198944E-2,2.969678879E0
1.259243035E2,-1.122400284E0,-1.779275179E0,-3.177080154E-1
1.260243709E2,-5.975094438E-2,-1.574216366E0,-2.894240856E0
1.261244444E2,-3.151163459E-1,-2.548904419E-1,-1.362213135E0
1.262245117E2,3.479033411E-1,9.913802147E-1,1.781926155E0
1.263245877E2,5.165374875E-1,1.568639755E0,2.826412201E0
1.264246525E2,4.886523187E-1,-3.422174454E-1,1.669709206E0
1.265247184E2,-2.194167376E-1,-1.382728577E0,-1.682420254E0
1.266247754E2,-8.398964405E-1,-7.691323757E-1,-3.126605511E0
1.267248389E2,-4.015818238E-1,1.056395531E0,-9.259653091E-1
1.268249101E2,5.606582761E-1,1.739603996E0,2.253228188E0
1.269249778E2,6.455727816E-1,2.130951881E-1,4.194020271E0
1.270250514E2,1.048465371E-1,-1.742361307E0,-9.932422638E-1
1.271251157E2,-2.272247672E-1,-2.063496113E0,-1.618843555E0
1.272251832E2,-2.180132270E-1,-2.126679420E-1,-2.110425949E0
1.273252471E2,1.468710542E0,2.479554653E0,1.927797318E0
1.274253157E2,4.122656584E-1,2.101776123E0,2.992766380E0
1.275253829E2,-3.223267198E-1,-7.355482578E-1,1.704658508E0
1.276254461E2,8.925474882E-1,-2.095540524E0,-3.426459312E0
1.277255174E2,-6.614125967E-1,-5.837974548E-1,-3.567977905E0
1.278258817E2,-1.031224847E0,1.617491722E0,-4.556493759E-1
1.279259494E2,-9.012945890E-1,1.897547722E0,2.914051056E0
1.280260113E2,1.102829456E0,-3.736195564E-1,2.615929604E0
1.281260754E2,-6.875638366E-1,-2.105949402E0,-8.196148872E-1
1.282261426E2,-1.545387506E-2,-1.817298889E0,-2.564534664E0
1.283262101E2,6.489716768E-1,6.338276863E-1,-1.436018467E0
1.284262728E2,-1.857805252E-2,1.371772766E0,1.883729935E0
1.285263383E2,-1.884626150E-1,1.387791157E0,3.706889153E0
1.286264048E2,3.455250263E-1,-6.110134125E-1,-9.921855927E-1
1.287264692E2,-1.940202713E-2,-1.604471922E0,-3.110258102E0
1.288265378E2,-2.583974600E-1,-1.259131432E-1,-2.036323547E0
1.289266049E2,-6.597830057E-1,1.701803684E0,6.689558029E-1
1.290266725E2,-7.857903838E-1,2.223641872E0,3.755930901E0
1.291267396E2,2.273557186E-1,-7.484307289E-1,1.923596382E0
1.292268069E2,-6.439051628E-1,-1.743833065E0,-2.635187626E0
1.293268739E2,-4.901012182E-1,-1.532021761E0,-2.520598412E0
1.294269412E2,1.819335222E-1,2.838926315E-1,-3.677940369E-1
1.295270070E2,7.212160826E-1,1.767776489E0,1.854064941E0
1.296270728E2,-3.661155701E-3,8.210520744E-1,2.816745758E0
1.297271404E2,9.211682081E-1,-8.339016438E-1,2.481388092E0
1.298272092E2,-2.632701397E-1,-1.927193165E0,-3.091059685E0
1.299272771E2,-2.408591509E-1,-4.456920624E-1,-3.060077190E0
1.300273438E2,-1.336689472E0,2.046830177E0,2.774829865E-1
1.301274148E2,-5.842943192E-1,2.476133347E0,2.567484856E0
1.302274819E2,1.092671633E0,-5.453124046E-1,9.626865387E-1
1.303275489E2,-4.911314249E-1,-1.685430527E0,-8.306860924E-1
1.304276166E2,3.250977993E-1,-1.083238602E0,-3.069437981E0
1.305276821E2,8.456879854E-2,-7.040500641E-2,-1.235549450E0
1.306277549E2,9.882815480E-1,1.041963577E0,1.834074974E0
1.307278171E2,-3.822998405E-1,1.749939919E-1,5.478345871E0
1.308278858E2,1.141246557E-1,-1.070693254E0,9.242725372E-1
1.309279473E2,-2.736217380E-1,-1.591310740E0,-3.931603909E0
1.310280145E2,1.607539654E-1,5.167593956E-1,-2.705386162E0
1.311280823E2,-1.118481159E0,1.288108826E0,1.737021446E0
1.312281493E2,-4.907811284E-1,7.991237640E-1,5.440431595E0
1.313282165E2,9.463577271E-1,-1.138811588E0,-7.955303192E-1
1.314282830E2,-7.794886827E-2,-1.564945459E0,-1.915779591E0
1.315283486E2,5.052552223E-1,-5.864248276E-1,-3.064568996E0
1.316284152E2,1.486544609E0,1.207881451E0,1.327145576E0
1.317284830E2,1.071254015E-1,1.701074839E0,3.221449852E0
1.318285525E2,-2.187037468E-1,-1.525285244E-1,2.026146889E0
1.319286210E2,-2.518758774E-1,-1.731750011E0,-2.249637604E0
1.320286871E2,-1.185334921E-1,-7.259669304E-1,-3.927322865E0
1.321287556E2,-1.134135842E0,9.536714554E-1,-4.397106171E-1
1.322288219E2,-6.357226372E-1,1.155038834E0,1.940670013E0
1.323288901E2,4.233675599E-1,-6.380987167E-2,4.701639175E0
1.324289549E2,4.790688753E-1,-1.497018337E0,-1.819610596E0
1.325290205E2,4.310007691E-1,-1.548723698E0,-2.305227280E0
1.326290876E2,-1.836727560E-1,9.931278229E-2,-1.640233517E0
1.327291547E2,1.413576603E0,1.528544426E0,2.009830475E0
1.328292234E2,-4.636482000E-1,1.466705322E0,3.060087204E0
1.329292907E2,4.368172884E-1,-3.379037380E-1,1.014789581E0
1.330293584E2,2.779928446E-1,-1.917546272E0,-3.230950832E0
1.331294262E2,3.064656258E-2,-5.076251030E-1,-2.816522598E0
1.332294958E2,-2.024814844E0,1.439505100E0,9.752092361E-1
1.333295625E2,1.224743128E-1,1.737999439E0,2.279569626E0
1.334296290E2,9.665164351E-1,-7.344660759E-1,1.689928055E0
1.335296913E2,5.264760256E-1,-1.578071117E0,-5.581851006E-1
1.336297579E2,7.728129029E-1,-1.253464222E0,-3.928499699E0
1.337298245E2,3.316812515E-1,5.194458961E-1,-6.630949974E-1
1.338298935E2,4.340357780E-1,8.622851372E-1,1.583094597E0
1.339299617E2,5.734491348E-1,1.479659081E0,2.339393616E0
1.340300294E2,1.064695120E-1,-1.324141264E0,1.112375259E0
1.341300963E2,1.611509323E-1,-1.340449572E0,-4.380237579E0
1.342301653E2,-9.281283617E-1,-1.259961128E-1,-1.493073940E0
1.343302332E2,-1.491085529E0,1.107234001E0,1.053870201E0
1.344303037E2,-2.731831074E-1,1.834582329E0,6.024399757E0
1.345303726E2,1.065104485E0,-8.894996643E-1,-3.459405899E-1
1.346304422E2,2.293308675E-1,-2.213850737E0,-3.288487911E0
1.347305062E2,-4.637287855E-1,-1.445490599E0,-2.803564072E0
1.348305740E2,-1.929337382E-1,7.944221497E-1,1.875835419E0
1.349306379E2,5.855733156E-1,2.175538540E0,2.753658295E0
1.350405399E2,-8.563828468E-1,-7.681288719E-1,4.227286339E0
1.351406072E2,-3.147304058E-2,-2.360872269E0,-2.696022511E0
1.352406799E2,-4.724030495E-1,-1.732658148E0,-4.437278271E0
1.353407472E2,-1.606154203E0,5.222649574E-1,2.958402634E-1
1.354408150E2,-1.763170481E0,1.235856056E0,2.867774963E0
1.355408747E2,-5.756463408E-1,1.391557217E0,3.875610352E0
1.356409418E2,-4.566350877E-1,-7.200827599E-1,-3.792500496E-1
1.357410142E2,1.371018291E-1,-1.792679310E0,-1.912874699E0
1.358410833E2,8.776507974E-1,-6.357679367E-1,-2.774625778E0
1.359411503E2,1.523968577E-2,8.014316559E-1,2.037150383E0
1.360412166E2,-4.893529415E-1,1.079637051E0,4.350512505E0
1.361412841E2,-6.669892669E-1,-5.535869598E-1,2.206352234E0
1.362413510E2,3.315227032E-1,-1.128285646E0,-2.686576843E0
1.363414132E2,-7.683724165E-3,-1.076521873E-1,-4.048385620E0
1.364414800E2,-1.878459454E-1,1.342196465E0,4.393815994E-1
1.365415460E2,8.720280975E-2,2.003437996E0,2.983464241E0
1.366416126E2,1.305609345E-1,-8.704576492E-1,1.911588669E0
1.367416801E2,-1.594352722E-1,-1.776714563E0,-2.037687778E0
1.368417512E2,-6.845824718E-1,-1.727482557E0,-1.188383102E0
1.369418195E2,-9.951964021E-2,1.975631714E-1,-1.952872753E0
1.370418861E2,9.078879952E-1,1.624795437E0,8.449487686E-1
1.371419506E2,-1.526933670E0,4.886646271E-1,6.128109932E0
1.372420169E2,2.403031588E-1,-1.194015980E0,-1.367838383E0
1.373420848E2,1.765364408E-1,-1.777287006E0,-4.808230400E0
1.374421520E2,-3.512632251E-1,3.999352455E-1,-2.656026840E0
1.375422176E2,-1.157950163E0,1.868225098E0,3.329308510E0
1.376422886E2,-6.125037074E-1,8.218135834E-1,5.439205170E0
1.377423557E2,1.180408299E-1,-1.135976315E0,-1.174748898E0
1.378424245E2,-4.793544412E-1,-2.022510767E0,-2.879654884E0
1.379424870E2,3.030167222E-1,-8.892607689E-1,-2.556666374E0
1.380425542E2,7.058066726E-1,9.955759048E-1,1.382708549E0
1.381426220E2,-3.356021643E-1,2.024193764E0,5.164274216E0
1.382426892E2,6.215891838E-1,-2.711477280E-1,2.142127991E0
1.383427564E2,5.333797932E-1,-1.645736456E0,-3.531868935E0
1.384428229E2,-8.311402798E-2,-4.130387306E-1,-4.329990864E0
1.385428884E2,-1.894980669E0,1.015630722E0,2.568368912E-1
1.386429554E2,-9.083448648E-1,1.542104721E0,3.150899887E0
1.387430225E2,1.655982733E0,-4.499487877E-1,2.782373905E0
1.388430912E2,-1.278290272E0,-2.188929558E0,-2.534724712E0
1.389431591E2,-7.329785228E-1,-1.145725727E0,-2.853262424E0
1.390432262E2,-2.835589647E-1,8.265862465E-1,2.923216820E-1
1.391432968E2,2.018055201E0,1.716932297E0,1.249704838E0
1.392433631E2,2.831101418E-2,1.629714966E-1,3.905618668E0
1.393434374E2,-8.600907326E-1,-1.407390594E0,-1.612412930E0
1.394435005E2,-2.816566229E-1,-5.438284874E-1,-4.819530487E0
1.395435660E2,-9.533546567E-1,8.756604195E-1,-3.255891800E-1
1.396436345E2,-1.101486802E0,1.609601021E0,2.355330944E0
1.397437094E2,4.905728102E-1,-4.545974731E-2,5.953896523E0
1.398437888E2,4.406082630E-2,-1.947177649E0,-1.998783588E0
1.399438538E2,-5.095867515E-1,-2.356282949E0,-3.049112797E0
1.400439136E2,-6.566405296E-2,2.198181152E-1,-1.936058521E0
1.401439699E2,1.182345748E0,1.283074856E0,1.953259468E0
1.402440347E2,3.922402859E-2,8.775901794E-1,3.968031883E0
1.403441024E2,-4.208557606E-1,-1.037863970E0,2.003759384E0
1.404441697E2,4.641325474E-1,-1.630217075E0,-4.544594288E0
1.405442312E2,4.252827168E-1,6.205191612E-1,-1.705581188E0
1.406442975E2,-1.065107107E0,1.795495987E0,1.850453377E0
1.407443675E2,-8.150279522E-2,1.371424198E0,3.346198082E0
1.408444430E2,1.127201438E0,-1.238486767E0,-2.551774979E-1
1.409445101E2,-6.481570005E-1,-2.234575987E0,-2.345399857E0
1.410445744E2,-2.427502275E-1,-1.100132227E0,-2.672093391E0
1.411446390E2,-1.453599930E-1,1.343611240E0,2.343706131E0
1.412447063E2,4.864336252E-1,2.289216042E0,2.335184097E0
1.413447775E2,-9.276227355E-1,2.466897964E-1,3.290124893E0
1.414448455E2,-5.108356476E-2,-2.174273252E0,-2.518981457E0
1.415449173E2,-6.086075306E-2,-1.356846333E0,-4.299003124E0
1.416449802E2,2.281194925E-1,6.924843788E-1,-1.867342949E0
1.417450471E2,-7.374521494E-1,1.618255615E0,3.250441551E0
1.418451099E2,-3.528496027E-1,4.958138466E-1,3.704116821E0
1.419451773E2,1.455092430E-1,-1.372440100E0,-1.054146767E0
1.420452405E2,-4.184353948E-1,-1.939050198E0,-3.189960957E0
1.421453074E2,-6.525661349E-1,-5.244865417E-1,-2.610648632E0
1.422453749E2,8.076348305E-1,1.714506149E0,3.248945236E0
1.423456969E2,-4.322106838E-1,9.224658012E-1,6.229692459E0
1.424457650E2,-3.312456012E-1,-1.398539782E0,-4.044570923E-1
1.425458327E2,-4.175728559E-2,-1.575969219E0,-4.504343510E0
1.426458977E2,7.174159288E-1,6.950812340E-1,-1.359849453E0
1.427459698E2,-1.048911691E0,1.212715626E0,2.088279724E0
1.428460361E2,-6.264683008E-1,1.693495274E0,3.251891136E0
1.429461080E2,3.974155188E-1,-9.074635506E-1,1.841220856E-1
1.430461691E2,-3.768731952E-1,-1.689143658E0,-2.215184689E0
1.431462359E2,-7.420666218E-1,-1.573348761E0,-2.684834003E0
1.432463004E2,2.059466839E-1,5.302567482E-1,2.198408127E0
1.433463686E2,1.011929512E-1,2.255301952E0,2.757826805E0
1.434464361E2,3.017798662E-1,3.956184387E-1,3.546495438E0
1.435465040E2,4.948472977E-1,-2.050932646E0,-2.618842125E0
1.436465708E2,-3.079309464E-1,-1.193900824E0,-4.493217945E0
1.437466390E2,-8.899996877E-1,8.807630539E-1,-3.867211342E-1
1.438467037E2,-9.796130657E-1,1.699836731E0,2.710543633E0
1.439467716E2,3.556215763E-2,1.025970936E0,4.239190102E0
1.440468376E2,-1.734287739E-1,-1.554072857E0,-1.451985359E0
1.441469040E2,-7.408454418E-1,-2.252213717E0,-3.490252018E0
1.442469700E2,-8.956265450E-2,-4.525990486E-1,-2.442386150E0
1.443470372E2,1.026995182E-1,1.860508919E0,2.358657837E0
1.444471047E2,-3.530995846E-1,1.660111904E0,5.041963577E0
1.445471746E2,8.502998352E-1,-1.162957907E0,7.804317474E-1
1.446472420E2,2.780331373E-1,-2.038717270E0,-4.695470333E0
1.447473088E2,-3.820978403E-1,-6.519508362E-1,-2.841812611E0
1.448473799E2,-1.793529272E0,1.381312370E0,2.069000244E0
1.449474468E2,-1.668268442E-1,2.398562908E0,4.037159920E0
1.450475162E2,1.284652948E-1,-2.588644028E-1,1.361496925E0
1.451475770E2,-9.992252588E-1,-1.708126545E0,-2.167373180E0
1.452476443E2,-7.948711514E-1,-1.715842962E0,-2.437868118E0
1.453477102E2,7.529249191E-1,3.535275459E-1,-3.256978989E-1
1.454477768E2,6.785064936E-1,1.797614574E0,1.667367935E0
1.455478481E2,-1.172868133E0,4.215683937E-1,3.430604935E0
1.456479136E2,2.369813919E-1,-1.403322697E0,-1.019435883E0
1.457479815E2,3.957998753E-2,-1.017172337E0,-4.900854111E0
1.458480443E2,-6.896548867E-1,5.451850891E-1,-1.082140923E0
1.459481120E2,-1.284700632E-1,1.436952591E0,1.802884102E0
1.460481785E2,-1.876460910E-1,1.269423008E0,4.617003441E0
1.461482462E2,-5.196168423E-1,-1.456191063E0,-1.042110920E0
1.462483134E2,-5.887540579E-1,-1.935725451E0,-2.328789711E0
1.463483805E2,-1.716327071E-1,-5.747318268E-1,-2.233480453E0
1.464484485E2,8.199143410E-1,1.065505981E0,1.338863373E0
1.465485138E2,-9.352612495E-2,1.264173985E0,4.167133331E0
1.466520510E2,1.557451487E-1,-1.138277054E-1,1.954748154E0
1.467547885E2,-3.898470402E-1,-1.642413378E0,-3.665778637E0
1.468587339E2,8.746743202E-2,5.246315002E-1,-1.992034435E0
1.469587990E2,-7.762886286E-1,1.813383579E0,2.094860077E0
1.470588626E2,-4.036159515E-1,1.590425491E0,2.497040749E0
1.471589244E2,4.404834509E-1,-8.489356041E-1,1.121537209E0
1.472589916E2,-9.540548325E-1,-1.907352924E0,-1.747244835E0
1.473590637E2,-7.005251646E-1,-1.384458542E0,-2.242659569E0
1.474591297E2,9.172585011E-1,5.652904510E-1,-9.667491913E-2
1.475591968E2,9.449434280E-1,1.626530647E0,1.535458565E0
1.476592616E2,-4.134801626E-1,4.177095890E-1,4.040334702E0
1.477593293E2,5.203342438E-2,-1.307617426E0,-1.151220798E0
1.478593963E2,-1.994796991E-1,-1.095096111E0,-4.720154762E0
1.479594646E2,-6.454454064E-1,9.477066994E-1,-1.833842278E0
1.480595325E2,-1.219701171E-1,1.404225826E0,2.621904373E0
1.481595996E2,-1.456173658E-1,9.521613121E-1,3.508575439E0
1.482596626E2,-7.695812583E-1,-1.622077227E0,-1.635665894E-1
1.483597379E2,-5.052316189E-1,-2.070851803E0,-3.099686146E0
1.484598053E2,-2.057539225E-1,-6.921937466E-1,-3.012138367E0
1.485598852E2,1.220984340E0,1.784337997E0,3.049841881E0
1.486599442E2,4.739359617E-1,1.831501961E0,4.615233421E0
1.487600113E2,1.027940035E0,-2.983794212E-1,2.012228966E0
1.488600658E2,3.040987253E-1,-1.938744307E0,-3.803814411E0
1.489601323E2,-9.207868576E-2,-1.390411615E0,-4.053555012E0
1.490602044E2,-1.715165615E0,1.045021057E0,-3.264007568E-1
1.491602718E2,-1.173936129E0,2.877889156E0,4.726359367E0
1.492603445E2,5.401484966E-1,-2.000908852E-1,1.838484764E0
1.493604064E2,-7.960509062E-1,-1.617871046E0,-1.316602707E0
1.494604788E2,-5.674286485E-1,-1.926340818E0,-2.768420696E0
1.495605382E2,2.564775944E-2,-5.492463112E-1,-2.542212486E0
1.496606733E2,1.130314946E0,1.370985031E0,1.674082756E0
1.497607352E2,-6.080181599E-1,1.018477440E0,4.997845650E0
1.498608045E2,1.840202808E-1,-9.843850136E-1,2.330474854E-1
1.499608722E2,-3.712081909E-2,-1.225850821E0,-4.815896511E0
1.500609396E2,2.621412277E-3,4.200172424E-2,-1.453368664E0
1.501610100E2,-7.928102612E-1,1.230974197E0,2.523222923E0
1.502610784E2,-4.165843129E-1,2.605700493E0,4.458192825E0
1.503611450E2,5.402218103E-1,-5.376682281E-1,7.874965668E-2
1.504612088E2,-1.006775498E0,-2.180800200E0,-2.668854237E0
1.505612733E2,-5.002585053E-1,-2.003542662E0,-1.781978130E0
1.506613437E2,7.870807648E-1,-3.045368195E-2,1.714458466E-1
1.507614110E2,5.563813448E-1,1.758651733E0,2.231694221E0
1.508614795E2,1.459118128E-1,9.850955009E-1,4.583910942E0
1.509615444E2,1.092984676E-1,-1.133054256E0,-2.090832710E0
1.510616180E2,-3.980998993E-1,-9.593992233E-1,-5.026444435E0
1.511616853E2,-8.783159256E-1,2.848644257E-1,-1.138497353E0
1.512617548E2,-6.686921120E-1,1.255442619E0,3.224831581E0
1.513618151E2,7.405511141E-1,1.708178997E0,4.492873192E0
1.514618820E2,-4.324331284E-1,-1.436682463E0,-1.625770569E0
1.515619446E2,-5.825484395E-1,-2.092635632E0,-2.013625622E0
1.516620115E2,-4.524262846E-1,-8.200893402E-1,-2.574280262E0
1.517620789E2,5.475161076E-1,1.150054932E0,1.615616798E0
1.518621470E2,8.492696285E-2,1.587738514E0,7.810833931E0
1.519622147E2,2.742356062E-1,-8.232455254E-1,-1.541690826E-1
1.520622827E2,1.643653512E-1,-1.410778761E0,-4.570632458E0
1.521623503E2,-4.962528944E-1,-5.432953835E-1,-2.320691586E0
1.522624174E2,-6.340875030E-1,1.135902405E0,1.248369217E-1
1.523624844E2,-1.107765675E0,1.957080364E0,2.933116913E0
1.524625518E2,6.100624800E-2,-5.281639099E-1,2.570238113E0
1.525626169E2,-4.605999589E-1,-1.569228172E0,-2.222431183E0
1.526626898E2,-2.395858169E-1,-1.607260704E0,-2.384350300E0
1.527627565E2,2.211908102E-1,-2.602372169E-1,-1.688932896E0
1.528628258E2,9.244331121E-1,1.151361942E0,-1.036037922E0
1.529628866E2,-7.497404814E-1,1.896095276E-2,7.721569061E0
1.530629534E2,-2.209104300E-1,-1.538276196E0,-2.274646759E-1
1.531630205E2,-6.687067747E-1,-1.301040649E0,-4.698925495E0
1.532630876E2,-5.914452672E-1,7.387433052E-1,-4.295854568E-1
1.533631555E2,-1.343695641E0,1.763713360E0,2.187060356E0
1.534632228E2,-7.927072048E-1,2.207043648E0,1.804938316E0
1.535632928E2,-3.953108788E-1,-1.016191721E0,-1.558809280E-1
1.536633595E2,-1.750489473E-1,-2.160610676E0,-2.047614098E0
1.537634263E2,-1.955743879E-1,-1.469309092E0,-2.543487072E0
1.538634930E2,8.817139268E-1,7.912468910E-1,2.474073410E0
1.539635603E2,3.676131964E-1,2.345512390E0,2.054105759E0
1.540636275E2,2.495606899E0,9.899396896E-1,2.250034332E0
1.541636939E2,-6.005134583E-1,-1.793751121E0,-2.618885994E0
1.542637611E2,-2.208369672E-1,-6.513757706E-1,-3.474077702E0
1.543638306E2,1.926497221E-1,6.873173714E-1,-2.965936661E-1
1.544638963E2,-8.356720209E-1,1.749721527E0,2.261777878E0
1.545639617E2,6.004275382E-2,-9.271860123E-2,2.815602303E0
1.546640265E2,-2.411698699E-1,-1.532699347E0,-1.891434669E0
1.547640971E2,-1.447969079E0,-2.121181726E0,-1.590378761E0
1.548641722E2,-4.165810943E-1,-6.207516193E-1,-5.661630630E-1
1.549642392E2,2.682799101E-1,1.332562923E0,1.271597862E0
1.550643028E2,2.349985242E-1,7.586059570E-1,5.226779938E0
1.551643654E2,-3.892389536E-1,-7.761461735E-1,6.845569611E-2
1.552644326E2,-2.722152770E-1,-7.030792236E-1,-3.803829193E0
1.553645008E2,-2.334198356E-1,4.421157837E-1,-1.747500420E0
1.554645659E2,-7.058931589E-1,1.126283169E0,1.728884697E0
1.555646313E2,-9.232238531E-1,1.531363487E0,1.498082161E0
1.556646971E2,6.766384840E-2,-9.159340858E-1,1.123830795E0
1.557647643E2,4.901522994E-1,-1.649055719E0,-2.523067474E0
1.558648336E2,6.760901213E-2,-1.927324533E0,-3.014885902E0
1.559649013E2,7.348806858E-1,6.268744469E-1,4.121952057E-1
1.560649730E2,2.167989612E-1,2.221756458E0,2.261720657E0
1.561650538E2,-5.976243019E-1,8.182663918E-1,2.965405464E0
1.562651213E2,4.588336647E-1,-1.328610182E0,-2.325315475E-1
1.563651841E2,6.042073965E-1,-9.003345966E-1,-4.443715096E0
1.564652370E2,-2.672334611E-1,2.379813194E-1,-2.048783779E0
1.565653023E2,-8.071355820E-1,1.319192410E0,2.519374847E0
1.566653733E2,-1.133505464E0,1.474544048E0,4.589451790E0
1.567654402E2,-1.989664435E-1,-1.290050268E0,-1.233367920E-1
1.568658006E2,8.504261971E-1,-1.446377277E0,-3.593240261E0
1.569658644E2,-5.587414503E-1,-1.100819111E0,-3.228835106E0
1.570659317E2,1.251957715E-1,1.177672863E0,3.265769958E0
1.571659992E2,7.715584338E-2,1.582415581E0,3.566717148E0
1.572660710E2,7.149643302E-1,-4.308376312E-1,-4.669189453E-3
1.573661390E2,5.487174392E-1,-8.354811668E-1,-2.501599312E0
1.574662061E2,-6.159622669E-1,3.193769455E-1,-2.161977291E0
1.575662660E2,-9.963961244E-1,1.209714413E0,1.332212448E0
1.576663322E2,-7.571656704E-1,1.041592598E0,3.137590408E0
1.577663993E2,1.213535666E-3,-1.150027275E0,1.908164978E0
1.578664687E2,1.341138631E-1,-1.703311443E0,-2.733940601E0
1.579665360E2,-4.067047834E-1,-1.462162256E0,-3.758572578E0
1.580666032E2,-4.419709742E-1,3.889088631E-1,1.042098045E0
1.581666773E2,8.044466376E-1,1.437955379E0,2.970387459E0
1.582667515E2,-3.813317716E-1,4.383099079E-1,4.416189194E0
1.583668186E2,-1.978303194E-1,-9.059302807E-1,-3.873996735E-1
1.584668832E2,7.302793264E-1,-8.667442799E-1,-4.446832180E0
1.585669412E2,5.092923641E-1,-1.684594154E-1,-1.557839394E0
1.586670081E2,-9.642975330E-1,8.385491371E-1,1.823065758E0
1.587670708E2,-1.185819864E0,1.919722080E0,5.008638382E0
1.588671396E2,3.901147097E-2,-6.092586517E-1,-5.264015198E-1
1.589672071E2,3.325345367E-2,-1.998585939E0,-2.787641525E0
1.590672744E2,1.636527628E-1,-1.582626820E0,-2.881950855E0
1.591673417E2,9.173402190E-1,4.793372154E-1,1.472821236E0
1.592674100E2,2.417420149E-1,2.132341385E0,4.671253204E0
1.593674800E2,3.674135804E-1,-3.472495079E-1,1.142795563E0
1.594675508E2,7.263032794E-1,-1.223562717E0,-3.361757278E0
1.595676149E2,3.312221766E-1,8.552169800E-2,-2.593258381E0
1.596676788E2,-1.339097142E0,1.705674648E0,1.456088066E0
1.597677423E2,-1.139330745E0,1.671540737E0,2.420701027E0
1.598678115E2,-1.907145232E-1,-1.075275898E0,4.006773949E0
1.599678798E2,-8.329653144E-1,-2.231692553E0,-3.577008247E0
1.600679508E2,-2.935859561E-1,-1.735316038E0,-3.248690128E0
1.601680178E2,8.516678214E-2,3.185739517E-1,1.493526459E0
1.602680837E2,1.038139701E0,1.181299686E0,7.857294083E-1
1.603681478E2,-3.133868575E-1,2.083873749E-1,4.302149773E0
1.604682149E2,-3.145179749E-1,-8.845832348E-1,1.161203384E-1
1.605682825E2,3.470167518E-1,-4.202740192E-1,-4.789284229E0
1.606683483E2,-7.449679375E-1,6.173005104E-1,1.609420776E-2
1.607684167E2,-5.518438220E-1,1.054566860E0,2.451001167E0
1.608684903E2,-9.195901155E-1,-1.165294647E-2,4.026220322E0
1.609685580E2,-7.495707273E-1,-1.341357708E0,-1.341307640E0
1.610686237E2,-4.642904401E-1,-1.376785517E0,-1.963980198E0
1.611756221E2,-6.062316895E-1,1.854891777E-1,-1.100151062E0
1.612820323E2,5.351828337E-1,1.065324783E0,2.369191170E0
1.613888409E2,-1.672726274E-1,5.982708931E-1,2.595594406E0
1.614889065E2,8.272780478E-2,-6.947102547E-1,-6.428813934E-2
1.615889701E2,7.079050541E-1,-9.826734066E-1,-3.600974560E0
1.616890341E2,1.783664227E-1,1.570925713E-1,-1.900274277E0
1.617891023E2,-1.023261428E0,1.389061928E0,1.515174866E0
1.618891678E2,-9.212200046E-1,1.504236221E0,3.514842033E0
1.619892351E2,4.838177562E-1,-8.510131836E-1,2.225136757E0
1.620893037E2,6.855918467E-2,-1.516533852E0,-2.958405972E0
1.621893709E2,-4.183806479E-3,-9.406797886E-1,-2.538230419E0
1.622894408E2,-8.554469049E-2,5.373568535E-1,1.210165977E0
1.623895117E2,5.164384842E-1,1.025358677E0,1.745399475E0
1.624895798E2,-3.130809367E-1,3.814435005E-1,2.288442612E0
1.625896427E2,-4.333652556E-2,-7.849249840E-1,-1.809711456E-1
1.626897083E2,4.883903265E-2,-6.224114895E-1,-4.056352139E0
1.627897744E2,-5.967683792E-1,1.632328033E-1,-5.804071426E-1
1.628898430E2,-6.980997920E-1,9.069943428E-1,2.072486877E0
1.629899061E2,-7.200700045E-1,1.600105762E0,3.433354378E0
1.630899733E2,3.691745996E-1,-7.678513527E-1,-1.258738041E0
1.631900396E2,2.916236781E-2,-1.507972717E0,-2.379259586E0
1.632901074E2,-2.138034999E-1,-7.451717854E-1,-1.965170383E0
1.633901742E2,-2.990239561E-1,5.254201889E-1,2.833464622E0
1.634902413E2,-5.873316526E-2,1.397260666E0,2.744919777E0
1.635903064E2,1.138409972E-1,-3.184103966E-2,2.759861946E0
1.636903739E2,7.586221695E-1,-1.438112736E0,-2.170616627E0
1.637904416E2,-1.899033785E-2,-6.980657578E-1,-3.547459126E0
1.638905100E2,-1.132076740E0,7.855973244E-1,2.510166168E-2
1.639905776E2,-6.018934250E-1,1.853806496E0,2.864381790E0
1.640906455E2,-4.890934825E-1,1.352901459E-1,3.088913918E0
1.642003135E2,4.494900256E-2,-1.312641382E0,-1.308148861E0
1.643003800E2,-2.022783607E-1,-1.480931997E0,-3.354076385E0
1.644004467E2,-6.090716720E-1,-2.076373100E-1,-2.049407482E0
1.645005131E2,2.610260248E-1,1.367530346E0,2.528671265E0
1.646005790E2,-1.458879411E-1,9.554643631E-1,4.032216072E0
1.647006461E2,6.982168555E-1,-6.864864826E-1,1.890459061E-1
1.648007141E2,4.908206463E-1,-9.008979797E-1,-3.387456894E0
1.649007833E2,-1.287771761E-1,1.020298004E-1,-2.140593052E0
1.650008506E2,-1.177186728E0,1.149826050E0,4.572391510E-1
1.651009177E2,-5.589943528E-1,1.207821369E0,4.233571053E0
1.652009844E2,1.989165694E-2,-9.623746872E-1,7.352952957E-1
1.653010530E2,2.799488008E-1,-1.201729298E0,-3.203388691E0
1.654011271E2,-2.846404612E-1,-7.604444027E-1,-1.389299393E0
1.655011931E2,-1.446098387E-1,4.666094780E-1,3.503761292E-1
1.656012583E2,4.552992880E-1,7.935018539E-1,2.415370941E0
1.657013230E2,1.056903303E-1,3.174643517E-1,2.059336662E0
1.658013909E2,-1.483879089E-1,-8.823330402E-1,-1.825428009E-1
1.659014595E2,-7.165747136E-2,-5.548760891E-1,-4.135433197E0
1.660015219E2,-6.223041415E-1,2.508821487E-1,-6.085195541E-1
1.661015902E2,-1.017764091E0,1.056886196E0,2.490227699E0
1.662016562E2,2.510410547E-1,7.983965874E-1,3.939188957E0
1.663017243E2,1.437573433E-1,-1.446541071E0,-1.307712555E0
1.664017965E2,-2.194167078E-1,-2.031610727E0,-3.573413849E0
1.665018690E2,-1.068868190E-1,-7.704212666E-1,-1.978166580E0
1.666019363E2,4.932534695E-1,1.128901482E0,1.676586151E0
1.667019976E2,-3.488069773E-1,1.741887808E0,4.358492851E0
1.668020634E2,3.451178670E-1,-2.960801125E-1,1.546181679E0
1.669021303E2,1.250944257E0,-1.540448427E0,-3.535847664E0
1.670021975E2,8.253265023E-1,-2.306318283E-1,-2.034768105E0
1.671022606E2,-1.733611822E0,8.638410568E-1,6.466169357E-1
1.672023270E2,-1.276287556E0,1.463859081E0,2.279043198E0
1.673023938E2,1.617522687E-1,1.992640495E-1,3.254775047E0
1.674024618E2,-3.142037243E-2,-1.298113346E0,-8.856682777E-1
1.675025279E2,3.117790818E-1,-1.631719828E0,-3.586780071E0
1.676026004E2,-1.476550251E-1,-5.961337090E-1,-7.868456841E-1
1.677026668E2,9.603875279E-1,1.387889385E0,1.842715263E0
1.678027431E2,-8.501120210E-1,5.871636868E-1,4.874052048E0
1.679028047E2,-1.629948020E-1,-1.158193111E0,-9.459705353E-1
1.680028718E2,5.447077751E-1,-6.238560677E-1,-3.900722504E0
1.681029308E2,-7.738574743E-1,4.176831245E-1,-8.118257523E-1
1.682029975E2,-1.632318258E0,1.255713463E0,2.050353050E0
1.683030649E2,-9.249197245E-1,8.373022079E-1,4.123107910E0
1.684031318E2,-6.170533299E-1,-1.524758339E0,-2.120542049E0
1.685031991E2,-9.651068449E-1,-2.166083097E0,-2.497932911E0
1.686032643E2,-5.464408994E-1,-7.774939537E-1,-2.186559677E0
1.687033313E2,9.999570847E-1,1.041352272E0,2.482906342E0
1.688033987E2,2.932751179E-1,1.957276106E0,2.723281860E0
1.689034678E2,5.915701985E-1,-9.266614914E-2,2.377499580E0
1.690035411E2,9.667702913E-1,-1.597291470E0,-2.312713146E0
1.691036102E2,-1.434429288E-1,-7.721858025E-1,-4.081079960E0
1.692036772E2,-6.780824661E-1,6.081976891E-1,8.123493195E-2
1.693037384E2,-8.412269950E-1,1.688562870E0,2.041060448E0
1.694038036E2,-2.509147823E-1,2.796702385E-1,3.628129005E0
1.695038696E2,-7.076702118E-1,-1.470171213E0,-1.470553875E0
1.696039356E2,-5.536941886E-1,-1.569515228E0,-2.211761475E0
1.697040102E2,-7.882700861E-2,-1.266849041E-1,-2.224835396E0
1.698040784E2,2.109925747E-1,1.324460506E0,1.353902817E0
1.699041474E2,-3.931462765E-3,1.049791336E0,4.894138336E0
1.700042072E2,7.620736361E-1,-3.839333057E-1,5.785541534E-1
1.701042744E2,4.825497866E-1,-1.119118214E0,-3.150157452E0
1.702043408E2,1.739169955E-1,4.623970985E-1,-1.620084286E0
1.703044072E2,-1.231975317E0,9.389843941E-1,2.389383316E-1
1.704044742E2,-1.033139229E0,1.275364399E0,1.568235397E0
1.705045399E2,-3.276457489E-1,-6.684055328E-1,3.812577248E0
1.706046066E2,3.600273728E-1,-1.352083445E0,-3.184895039E0
1.707046819E2,1.024945676E-1,-1.043874025E0,-2.379821777E0
1.708047515E2,3.216284215E-1,9.885931015E-2,-5.742769241E-1
1.709048198E2,1.451955557E0,1.768227100E0,2.612737656E0
1.710048789E2,-1.086778939E-1,3.951542377E-1,3.739174843E0
1.711049459E2,6.002612710E-1,-7.397572994E-1,-1.897954941E-1
1.712050128E2,3.787298203E-1,-8.600776196E-1,-3.624168396E0
1.713050796E2,3.199622035E-1,9.870352745E-1,-2.430743694E0
1.714056187E2,-1.006451726E0,7.863512039E-1,2.386753082E0
1.715056872E2,-7.724419236E-1,1.307360172E0,4.631226540E0
1.716057532E2,2.244465649E-1,-8.182783127E-1,-1.483693123E0
1.717058203E2,1.289640069E-1,-1.557919979E0,-2.689313412E0
1.718058863E2,-1.830734611E-1,-1.255901098E0,-2.947818756E0
1.719059552E2,6.605843306E-1,9.878764153E-1,7.915925980E-1
1.720060223E2,9.601426721E-1,2.229509830E0,4.665847778E0
1.721060892E2,7.693921328E-1,-2.021446228E-1,3.983290672E0
1.722061559E2,5.408753157E-1,-1.968842506E0,-4.175720692E0
1.723062230E2,-4.633624554E-1,-1.285697460E0,-4.030223846E0
1.724062909E2,-1.127757430E0,7.736091614E-1,-7.824792862E-1
1.725063570E2,-1.414853930E0,1.962193966E0,1.850764275E0
1.726064230E2,-9.816530943E-1,4.409294128E-1,4.604509354E0
1.727064928E2,-3.019016981E-1,-1.657269716E0,-1.332260132E0
1.728065670E2,4.616349936E-2,-1.856036425E0,-2.342407703E0
1.729066361E2,2.364461422E-1,8.032512665E-2,-1.146128178E0
1.730067002E2,8.244743347E-1,1.157147408E0,2.278602600E0
1.731067612E2,-4.660362005E-2,6.709122658E-1,3.622477531E0
1.732068277E2,6.982067823E-1,-8.294041157E-1,-2.306175232E-1
1.733068948E2,2.796245217E-1,-1.301279783E0,-4.390744209E0
1.734069626E2,1.008772850E-2,4.389085770E-1,-1.831570148E0
1.735070284E2,-1.744416714E0,1.140640736E0,1.332232475E0
1.736070976E2,-9.940277934E-1,1.603381157E0,2.989753723E0
1.737071640E2,6.255564690E-1,-7.984852791E-1,9.563713074E-1
1.738072320E2,1.824871302E-1,-1.746603489E0,-2.887647152E0
1.739072971E2,-7.411110401E-2,-1.358163595E0,-2.611744404E0
1.740073642E2,-3.919832110E-1,5.736536980E-1,2.246044159E0
1.741074315E2,3.827200532E-1,1.324583530E0,2.415034294E0
1.742075061E2,-6.826218367E-1,2.814197540E-1,2.530290604E0
1.743075732E2,-1.658018231E-1,-1.240445614E0,-6.839723587E-1
1.744076405E2,-1.626248956E-1,-8.023197651E-1,-4.163476944E0
1.745076989E2,-5.397417545E-1,5.939612389E-1,-7.633566856E-1
1.746077649E2,-7.280050516E-1,9.240846634E-1,2.180268288E0
1.747078324E2,-3.465926647E-2,1.039921284E0,5.279877663E0
1.748079016E2,-1.132015884E-1,-1.641027927E0,-1.614395618E0
1.749079698E2,-3.077990413E-1,-1.754747868E0,-3.715141296E0
1.750080365E2,-2.628271282E-1,-5.220708847E-1,-1.360008717E0
1.751081095E2,8.139423132E-1,8.738417625E-1,1.810330391E0
1.752081767E2,2.303082943E-1,1.132224560E0,3.956767082E0
1.753082449E2,1.953005791E-2,-2.994675636E-1,1.253832817E0
1.754083058E2,3.198850155E-2,-1.046667099E0,-3.627358437E0
1.755083779E2,2.449685335E-1,-2.160954475E-1,-1.660871029E0
1.756084428E2,-1.270418644E0,6.249423027E-1,6.566667557E-1
1.757085097E2,-5.832695365E-1,1.702758312E0,3.409282684E0
1.758085801E2,6.509426832E-1,-3.774671555E-1,1.038480759E0
1.759086495E2,3.924387693E-2,-1.647028208E0,-3.050853729E0
1.760087209E2,-7.440752983E-1,-1.471785307E0,-2.516637802E0
1.761087809E2,2.712264061E-1,6.998949051E-1,1.345812798E0
1.762088469E2,4.319063425E-1,1.438530922E0,2.043320656E0
1.763089166E2,2.532570362E-1,5.920438766E-1,2.975261688E0
1.764089826E2,-3.024220467E-2,-1.253879070E0,-6.025562286E-1
1.765090486E2,-2.504646182E-1,-1.174700022E0,-4.454370975E0
1.766091115E2,-3.058648109E-1,5.621476173E-1,-1.619967461E0
1.767091796E2,-5.151292682E-1,1.079798222E0,3.073228836E0
1.768092478E2,-2.761844695E-1,1.273944855E0,3.390299797E0
1.769093134E2,1.302706003E-1,-9.193286896E-1,-1.008209229E0
1.770093802E2,-2.182306051E-1,-1.975305557E0,-2.489699841E0
1.771094471E2,-1.116805077E-1,-1.315407753E0,-2.592113018E0
1.772095130E2,1.339479685E-1,6.847896576E-1,2.158922195E0
1.773095801E2,1.086427450E0,2.284529686E0,3.748257637E0
1.774096470E2,3.166648149E-1,3.960261345E-1,2.147861481E0
1.775097133E2,3.143441677E-2,-1.293915510E0,-2.518186569E0
1.776097792E2,-3.140115738E-1,-7.269675732E-1,-3.722863674E0
1.777098460E2,-8.418653011E-1,5.002627373E-1,-5.929608345E-1
1.778099144E2,-3.640086055E-1,1.442309380E0,1.831365585E0
1.779099822E2,-2.475926876E-1,8.751940727E-1,3.783340454E0
1.780100505E2,-7.868322730E-1,-1.077358007E0,-1.239879131E0
1.781101172E2,-8.091134429E-1,-1.700937986E0,-2.536657333E0
1.782101851E2,-3.361173272E-1,-9.409527779E-1,-2.409870148E0
1.783102525E2,1.374329925E0,5.650525093E-1,1.963309288E0
1.784103204E2,4.534101486E-1,1.573649406E0,3.564356804E0
1.785103875E2,6.793547869E-1,-1.160144806E-2,2.410562515E0
1.786105799E2,5.688363314E-1,-1.117930174E0,-3.477891922E0
1.787106463E2,-4.498569965E-1,-3.536047935E-1,-3.383030415E0
1.788107128E2,-9.808084369E-1,5.014047623E-1,-3.928604126E-1
1.789107811E2,-2.483003139E-1,1.579063416E0,2.834158897E0
1.790108547E2,2.727500200E-1,3.086390495E-1,2.818926811E0
1.791109223E2,-1.329892993E0,-1.538616896E0,-2.247563839E0
1.792109997E2,-7.040174007E-1,-1.553997278E0,-2.520059109E0
1.793110606E2,-1.083296418E0,-5.766959190E-1,-3.986349106E-1
1.794111274E2,3.576412201E-1,7.260875702E-1,2.281927109E0
1.795111834E2,5.210832357E-1,1.151054859E0,2.896346092E0
1.796112498E2,1.112825274E-1,-3.757085800E-1,2.156018257E0
1.797113162E2,6.762956381E-1,-1.158176184E0,-3.772990227E0
1.798113840E2,3.297005892E-1,1.900725365E-1,-2.589514256E0
1.799114535E2,-1.050754309E0,7.917895317E-1,2.124992371E0
1.800115239E2,-2.568928003E-1,1.058002949E0,3.145234108E0
1.801115910E2,2.612118125E-1,-4.547481537E-1,1.176484108E0
1.802116558E2,-5.033575892E-1,-1.570936918E0,-2.165273190E0
1.803117276E2,-3.232294321E-1,-1.569354057E0,-2.835238457E0
1.804117950E2,3.783265352E-1,1.054129601E-1,1.078363419E0
1.805118639E2,1.179056048E0,1.600555420E0,2.629896164E0
1.806119228E2,-1.059995890E-1,5.345513821E-1,4.339675903E0
1.807119899E2,3.219456077E-1,-1.017044067E0,-5.824756622E-1
1.808120560E2,5.751963258E-1,-7.515442371E-1,-4.601345539E0
1.809121241E2,-6.772958636E-1,2.029528618E-1,-1.010872841E0
1.810121933E2,-1.189397335E0,1.264411926E0,2.225832939E0
1.811122603E2,-2.386891544E-1,1.557551861E0,4.590053558E0
1.812123279E2,-1.592369080E-1,-1.096541882E0,-7.795667648E-1
1.813123959E2,-2.660979629E-1,-1.848965406E0,-2.637454033E0
1.814124651E2,-9.481998682E-1,-1.044190407E0,-3.684425354E0
1.815125307E2,-1.498107910E-1,6.953916550E-1,2.623251915E0
1.816125965E2,6.936076880E-1,1.992842674E0,3.178009033E0
1.817126615E2,7.602393627E-2,3.376061916E-1,3.609586716E0
1.818127303E2,-1.656111479E-1,-1.944713593E0,-2.153750420E0
1.819127972E2,1.653838158E-1,-9.985363483E-1,-4.548172951E0
1.820128643E2,-4.231265783E-1,6.085634232E-1,-1.706068516E0
1.821129316E2,-1.810935855E0,1.452584267E0,1.735410690E0
1.822130053E2,-5.180917978E-1,6.841430664E-1,7.199768066E0
1.823130724E2,-1.752911806E-1,-1.359908104E0,-1.704851151E0
1.824131386E2,-3.167477250E-2,-2.015541792E0,-4.463912964E0
1.825131967E2,-4.104358554E-1,-9.799518585E-1,-1.580921650E0
1.826132749E2,9.679938555E-1,9.675612450E-1,2.059332848E0
1.827133431E2,8.203654289E-1,1.353853703E0,3.077383041E0
1.828134239E2,1.755999327E-1,-3.646366596E-1,1.390194893E0
1.829134799E2,-1.052025557E-1,-1.130509853E0,-4.035909653E0
1.830135461E2,-4.820525646E-2,1.164007187E-1,-2.588609219E0
1.831136004E2,-1.254029751E0,1.434811115E0,1.416193962E0
1.832136675E2,-3.741464019E-1,1.522631168E0,3.211465836E0
1.833137346E2,7.871573567E-1,-5.824284554E-1,2.575729370E0
1.834138023E2,-4.079700708E-1,-1.742177248E0,-2.437062740E0
1.835138687E2,-1.905142069E-1,-1.826456547E0,-3.244338512E0
1.836139349E2,-8.814322948E-2,3.321733475E-1,-8.011488914E-1
1.837140041E2,7.464412451E-1,1.470718384E0,1.349967003E0
1.838140720E2,4.946866035E-1,4.928970337E-1,4.403232574E0
1.839141512E2,1.344153881E-1,-1.031248331E0,-7.276000977E-1
1.840142162E2,-1.150894165E-1,-8.433029652E-1,-3.487371922E0
1.841142836E2,-7.941945791E-1,9.457235336E-1,-7.749786377E-1
1.842143399E2,-9.183558822E-1,2.003051758E0,1.505773544E0
1.843144071E2,-7.772117853E-1,1.487362862E0,1.376168251E0
1.844144806E2,4.754485786E-1,-1.145466328E0,4.920883179E-1
1.845145478E2,-6.231094599E-1,-2.534369469E0,-1.749403477E0
1.846146141E2,9.309508801E-1,-9.243326187E-1,-2.582314968E0
1.847146749E2,4.343285561E-1,1.039444923E0,1.280878067E0
1.848147422E2,7.202610970E-1,1.065555573E0,1.937479973E0
1.849148102E2,-2.443701029E-2,1.116237640E-1,1.912693977E0
1.850148773E2,3.660678864E-2,-6.369819641E-1,-1.699008942E-1
1.851149435E2,-4.425852895E-1,-4.490640163E-1,-3.505161285E0
1.852150168E2,3.315520287E-2,6.473369598E-1,-6.801652908E-1
1.853150840E2,-1.624125093E-1,9.668436050E-1,1.465889931E0
1.854151516E2,-9.089604616E-1,8.443012238E-1,1.503617287E0
1.855152112E2,2.500963807E-1,-8.205175400E-1,2.523984909E-1
1.856152772E2,-2.909108996E-2,-1.424526930E0,-2.002452850E0
1.857153456E2,-2.752591670E-1,-6.207275391E-1,-2.018257618E0
1.858154145E2,-8.771729469E-2,8.323369026E-1,1.220575333E0
1.859156686E2,-8.324548602E-2,1.335439205E0,1.547469139E0
1.860157350E2,-9.576100111E-2,2.383689880E-1,3.521214485E0
1.861158023E2,-1.600499749E-1,-1.250406265E0,-5.702209473E-1
1.862158696E2,3.365451097E-1,-7.913298607E-1,-4.028672695E0
1.863159360E2,4.502978921E-2,5.512804985E-1,-1.866133690E0
1.864160025E2,-5.831120908E-2,1.502003670E0,1.731523514E0
1.865160683E2,-5.908635855E-1,3.234434128E-1,6.314158440E0
1.866161366E2,-4.313198924E-1,-1.737152338E0,-1.312484264E0
1.867162032E2,5.714724064E-1,-1.282958746E0,-2.764429569E0
1.868162753E2,2.012134790E-1,-3.841714859E-1,-2.287143230E0
1.869163519E2,6.191278100E-1,1.332553864E0,1.227812767E0
1.870164197E2,1.207395196E-1,1.517955303E0,4.765263557E0
1.871164835E2,8.279561996E-2,-5.167031288E-1,1.450961113E0
1.872165413E2,3.710187674E-1,-1.306257248E0,-2.789602757E0
1.873166084E2,-2.639404535E-1,-3.633043766E-1,-2.822060108E0
1.874166749E2,-6.284526587E-1,7.676968575E-1,-7.113847733E-1
1.875167402E2,-7.495999336E-1,1.351062298E0,1.753540039E0
1.876168071E2,-1.262840927E-1,5.036926270E-1,4.564739227E0
1.877168746E2,-2.361779213E-1,-1.603478909E0,-1.434529781E0
1.878169419E2,6.403476596E-1,-1.197874784E0,-2.550495148E0
1.879170131E2,-2.735567093E-1,6.779885292E-2,-2.059429646E0
1.880170801E2,1.981491745E-1,1.164642811E0,1.849448204E0
1.881171476E2,-5.806024373E-2,6.358392239E-1,3.238645554E0
1.882172157E2,6.376241446E-1,-6.125483513E-1,3.734521866E-1
1.883172834E2,7.197004557E-2,-1.072698355E0,-2.652943611E0
1.884173505E2,-7.931530476E-1,1.479625702E-3,-2.478524208E0
1.885174115E2,-8.452492952E-1,1.540832520E0,4.730701447E-1
1.886174774E2,-2.808632553E-1,2.243434906E0,2.778328896E0
1.887175446E2,-6.960682571E-2,-1.667685032E0,2.180126190E0
1.888176130E2,-5.664141178E-1,-1.911642790E0,-2.789449692E0
1.889176806E2,3.838918805E-1,-1.744878054E0,-4.412456512E0
1.890177478E2,-9.038790464E-1,1.792268753E-1,-9.959983826E-1
1.891178171E2,5.963619947E-1,2.115055323E0,3.852543831E0
1.892178841E2,-1.122686267E-1,8.014745712E-1,4.623180389E0
1.893179519E2,-2.059841156E-2,-1.056922436E0,-8.963222504E-1
1.894180250E2,8.837321997E-1,-1.329693079E0,-4.232805729E0
1.895180910E2,-1.063635945E-1,-1.371898651E-1,-2.754436970E0
1.896181563E2,-1.302346468E0,1.515683651E0,1.581806183E0
1.897182156E2,-1.535164118E0,2.047246933E0,4.164518356E0
1.898182840E2,-8.166208863E-2,-1.041923523E0,-2.092933655E-2
1.899183592E2,-3.348946869E-1,-1.751283884E0,-3.142468929E0
1.900184262E2,1.819405854E-1,-1.354155064E0,-2.843170166E0
1.901184935E2,5.724351406E-1,4.222772121E-1,3.315105438E-1
1.902185537E2,5.595262051E-1,1.637613058E0,1.790579796E0
1.903186208E2,-5.475549698E-1,2.723629475E-1,5.271795273E0
1.904186876E2,7.679238319E-1,-1.171798706E0,-7.572975159E-1
1.905187582E2,2.573310211E-2,-1.630512714E0,-5.108534813E0
1.906188304E2,6.658868194E-1,6.560111046E-1,-3.533117294E0
1.907189016E2,-1.646009564E0,1.434872150E0,4.564529419E0
1.908189652E2,-1.320833802E0,1.582170010E0,5.898827553E0
1.909190276E2,3.278744519E-1,-1.217253208E0,-4.861707687E-1
1.910190907E2,-4.324241281E-1,-1.967531919E0,-2.579084873E0
1.911191617E2,-7.194845676E-1,-2.133984327E0,-3.439841747E0
1.912192284E2,1.970220566E0,1.669108629E0,-4.079742432E-1
1.913192959E2,3.983123302E-1,1.500153542E0,4.269525528E0
1.914193592E2,3.325033188E-1,-1.751544476E-1,4.847460747E0
1.915194250E2,5.413280725E-1,-1.733058929E0,-2.331330776E0
1.916194959E2,-5.415886641E-1,-1.524311543E0,-5.465662956E0
1.917195656E2,-3.133826256E-1,6.789994240E-1,-8.991932869E-1
1.918196398E2,-1.343118668E0,1.842095375E0,2.555151939E0
1.919197035E2,4.344556332E-1,2.708463669E0,6.111153603E0
1.920197681E2,-1.336856008E0,-1.588467836E0,-1.062953949E0
1.921198461E2,-6.964414120E-1,-2.829912663E0,-2.697482586E0
1.922199150E2,-1.901823282E-1,-9.785690308E-1,-3.790056705E0
1.923199827E2,-1.655656695E-1,1.249991894E0,1.599655151E0
1.924200332E2,9.021089077E-1,1.940630436E0,2.877551079E0
1.925201083E2,4.141744375E-1,-7.000422478E-2,3.612218857E0
1.926201739E2,-8.598101139E-2,-1.014637232E0,-2.796468258E0
1.927202411E2,-2.311027050E-1,-6.053495407E-1,-4.185539722E0
1.928202981E2,-1.637157917E0,1.420197487E-1,-7.231569290E-1
1.929203659E2,-1.796345711E0,1.347713470E0,2.626065254E0
1.930204327E2,-6.558419466E-1,1.287597656E0,4.771115303E0
1.931302772E2,-3.880059123E-1,-1.240391731E0,-1.482490063E0
1.932303445E2,-3.001813293E-1,-2.048258066E0,-2.320809841E0
1.933304120E2,4.022008777E-1,-8.667876720E-1,-2.444274902E0
1.934304791E2,3.648821115E-1,1.023527622E0,1.973954201E0
1.935305447E2,5.241018534E-1,1.383927822E0,3.342102051E0
1.936306116E2,5.433822870E-1,-4.442489147E-1,1.246136665E0
1.937306787E2,7.950936556E-1,-1.264533281E0,-3.095433235E0
1.938307475E2,3.053308129E-1,-3.929476738E-1,-3.400118351E0
1.939308176E2,-1.185319185E0,2.899546623E-1,4.853677750E-1
1.940308849E2,-1.345260739E0,1.307593346E0,2.066130638E0
1.941309519E2,2.903207242E-1,5.345253944E-1,2.960359573E0
1.942310186E2,-1.147532687E-1,-1.327506065E0,-3.520565033E-1
1.943310863E2,4.106331468E-1,-1.377607107E0,-3.922210693E0
1.944311535E2,-5.282694697E-1,-6.081676483E-2,-5.870065689E-1
1.945312214E2,3.850896955E-1,1.013288498E0,1.626509666E0
1.946312873E2,-1.180871576E-1,1.226413250E-1,6.971738815E0
1.947313543E2,9.626846910E-1,-8.223266602E-1,-1.011024475E0
1.948314183E2,3.868545890E-1,-9.703447819E-1,-4.209636688E0
1.949314860E2,-6.373713613E-1,5.502605438E-2,-1.001173019E0
1.950315556E2,-1.960149854E-1,1.715689182E0,5.031824112E-1
1.951316240E2,-8.271273375E-1,1.540190697E0,4.113723755E0
1.952316911E2,-3.619041145E-1,-1.301803112E0,1.354503632E-1
1.953317558E2,9.906509519E-2,-1.363204956E0,-1.830901146E0
1.954318216E2,2.349111736E-1,-6.847014427E-1,-2.573352814E0
1.955318873E2,1.584713012E-1,4.638881683E-1,1.106817245E0
1.956319543E2,7.110429406E-1,1.099517345E0,3.339662552E0
1.957320263E2,4.036274552E-1,-9.819960594E-2,1.583611488E0
1.958320952E2,6.410629153E-1,-1.001019478E0,-1.581887245E0
1.959321632E2,1.724316180E-1,-2.257883549E-1,-4.094904900E0
1.960322263E2,-7.244428992E-1,5.087316036E-1,-9.517288208E-2
1.961322932E2,-1.082918167E0,1.331895828E0,2.749739647E0
1.962323600E2,-7.380055189E-1,1.541376114E0,2.881613731E0
1.963324264E2,-7.604582906E-1,-1.835557222E0,3.036966324E-1
1.964324935E2,9.734929204E-1,-1.314722538E0,-2.762068748E0
1.965325601E2,-5.502331257E-2,-2.729287148E-1,-2.556937218E0
1.966326270E2,1.252950728E-2,1.107831955E0,1.888784409E0
1.967326941E2,2.566065490E-1,1.209992409E0,5.265301704E0
1.968327611E2,5.395319685E-2,-7.885606289E-1,-7.927789688E-1
1.969328284E2,6.195418537E-3,-1.478392601E0,-2.282109261E0
1.970328952E2,-5.477739573E-1,2.655165195E-1,-3.121092796E0
1.971329625E2,-1.646333933E0,1.729143620E0,2.035641670E0
1.972330298E2,1.665349960E0,2.184362888E0,2.750843048E0
1.973331000E2,-2.286075652E-1,-1.316685438E0,2.655935287E-1
1.974397713E2,-6.322327256E-1,-2.427500248E0,-1.914946556E0
1.975461793E2,-2.239899933E-1,-9.190602303E-1,-3.459345818E0
1.976533183E2,3.699070811E-1,1.174816847E0,-3.446674347E-2
1.977533861E2,1.068696260E0,1.741264582E0,1.857734680E0
1.978534512E2,-2.772880197E-1,-3.368117809E-1,3.877059937E0
1.979535151E2,1.788041294E-1,-1.248517990E0,-1.424715519E0
1.980535811E2,5.182255507E-1,-6.162285805E-1,-4.562324047E0
1.981536480E2,-6.030778885E-1,6.032817364E-1,-4.786825180E-1
1.982537151E2,-1.315488219E0,1.507044792E0,1.780180931E0
1.983537825E2,4.811483026E-1,7.908766270E-1,3.845122337E0
1.984538564E2,-8.171417117E-1,-1.268578529E0,-6.468420029E-1
1.985539261E2,2.379276156E-1,-1.193668127E0,-1.061510086E0
1.986539933E2,1.744734347E-1,-4.155254364E-1,-1.573065758E0
1.987540524E2,1.344333529E0,9.511830807E-1,1.679374695E0
1.988541208E2,1.519174457E0,1.470742226E0,1.847361565E0
1.989541961E2,-1.478766799E-1,-5.286049843E-1,9.599752426E-1
1.990542638E2,1.982885301E-1,-9.874005318E-1,-2.594356060E0
1.991543281E2,-3.817557693E-1,6.446433067E-2,-2.579321861E0
1.992543896E2,-9.055811167E-1,2.020652294E0,1.223859787E0
1.993544601E2,-1.035405636E0,7.222092152E-1,3.063478470E0
1.994545260E2,-4.014248252E-1,-1.912224174E0,9.216108322E-1
1.995546002E2,-1.935782433E-1,-1.871277809E0,-2.984902382E0
1.996546635E2,2.027243972E-1,-3.063962460E-1,-3.217037201E0
1.997547311E2,-1.502669752E-1,1.367669344E0,3.227710724E-1
1.998547890E2,2.760645747E-1,1.445193529E0,2.904727936E0
1.999548595E2,-2.164993435E-1,-2.180225849E-1,3.715558052E0
2.000549262E2,8.868964911E-1,-9.412144423E-1,-1.569398880E0
2.001549933E2,8.740012050E-1,-8.655948639E-1,-4.414677143E0
2.002550572E2,-4.840216041E-1,1.280767679E0,-9.279851913E-1
2.003555712E2,-2.849454880E-1,1.438230991E0,3.573124886E0
2.004556388E2,4.406018257E-1,4.865190983E-1,4.172260284E0
2.005557111E2,4.047147632E-1,-1.677395821E0,-7.629518509E-1
2.006557783E2,-5.003588796E-1,-1.687554240E0,-3.748329163E0
2.007558458E2,-8.360663652E-1,-2.449247837E-1,-2.149645805E0
2.008559076E2,6.633388400E-1,1.702654600E0,2.057496071E0
2.009559746E2,5.099883080E-1,1.379234791E0,2.441107750E0
2.010560404E2,-5.006890297E-1,-4.523873329E-1,3.584795952E0
2.011561092E2,3.486310244E-1,-4.876468182E-1,-3.131536484E0
2.012561766E2,-4.152895808E-1,-1.514704227E-1,-3.539358139E0
2.013562448E2,-6.547809839E-1,1.015523195E0,3.399610519E-1
2.014563109E2,-7.535916567E-1,1.081862688E0,2.266011238E0
2.015563788E2,-4.706984758E-2,-7.773306370E-1,4.615093231E0
2.016564447E2,-6.568473577E-1,-1.918998241E0,-1.753476143E0
2.017565118E2,-1.084809899E-1,-1.245421648E0,-3.572719097E0
2.018565788E2,-4.437741339E-1,1.569383144E-1,-8.597297668E-1
2.019566465E2,8.567103148E-1,1.422449112E0,1.183654785E0
2.020567133E2,-4.444593191E-2,1.471812248E0,1.987581253E0
2.021567798E2,9.809357524E-1,-5.493564606E-1,9.763498306E-1
2.022568466E2,-5.631595254E-1,-1.406087875E0,-2.854896069E0
2.023569144E2,-1.177132487E0,-4.691109657E-1,-3.562458515E0
2.024569822E2,-2.853693962E-1,2.097442150E0,2.370042801E-1
2.025570480E2,1.074592590E0,1.839608192E0,2.869723320E0
2.026571142E2,1.218715310E0,-3.952217102E-1,3.080862045E0
2.027571828E2,-9.308999777E-1,-2.107399940E0,-1.595478058E0
2.028572516E2,-5.901855230E-1,-1.574973583E0,-3.075654507E0
2.029573189E2,3.430237174E-1,4.732117653E-1,-1.338504314E0
2.030573841E2,9.564096928E-1,1.448622704E0,1.810376167E0
2.031574519E2,-3.372872472E-1,1.185654640E0,4.996398926E0
2.032575193E2,1.180955172E-1,-5.021781921E-1,-1.168843269E0
